timestamp,press,temp,gx,gy,gz,ax,ay,az
2206974700,91.46556091308594,35.781494140625,0.007100999820977449,-0.028480999171733856,0.011834999546408653,0.12023899704217911,-1.1216349601745605,-9.503093719482422
2206984700,91.47016906738281,35.781494140625,0.018478000536561012,-0.03229900076985359,0.030923999845981598,0.11724799871444702,-1.0833499431610107,-9.475577354431152
2206994700,91.47016906738281,35.781494140625,0.009468000382184982,-0.021379999816417694,-0.010689999908208847,0.10468500107526779,-1.1192419528961182,-9.521040916442871
2207004700,91.46556091308594,35.781494140625,0.011377000249922276,-0.03138300031423569,0.002747999969869852,0.056829001754522324,-1.1234300136566162,-9.461817741394043
2207014700,91.47450256347656,35.7906494140625,0.010459999553859234,-0.025655999779701233,-0.01107100024819374,0.03290100023150444,-1.098902940750122,-9.442076683044434
2207024700,91.46914672851562,35.77691650390625,0.01572900079190731,-0.01992899924516678,0.0023670000955462456,0.015553000383079052,-1.1144570112228394,-9.505487442016602
2207034700,91.47016906738281,35.781494140625,0.020462999120354652,-0.025655999779701233,-0.0005339999916031957,0.09690900146961212,-1.1012959480285645,-9.486345291137695
2207044700,91.46785736083984,35.781494140625,0.01336199976503849,-0.019471000880002975,0.017179999500513077,0.09631100296974182,-1.1030910015106201,-9.505487442016602
2207054700,91.46324920654297,35.781494140625,0.010459999553859234,-0.02466299943625927,-0.006794999819248915,0.10049799829721451,-1.1024930477142334,-9.503692626953125
2207064700,91.47708892822266,35.781494140625,0.010537000373005867,-0.021379999816417694,0.021990999579429626,0.09930200129747391,-1.1264209747314453,-9.504888534545898
2207074700,91.46785736083984,35.781494140625,0.009544000029563904,-0.028480999171733856,-0.010079000145196915,0.07238200306892395,-1.079761028289795,-9.481558799743652
2207084700,91.47118377685547,35.78607177734375,0.01763799972832203,-0.029015999287366867,0.02718299999833107,0.11724799871444702,-1.1018940210342407,-9.527621269226074
2207094700,91.47016906738281,35.781494140625,0.02710700035095215,-0.032832998782396317,-0.005803000181913376,0.06520400196313858,-1.1168489456176758,-9.492924690246582
2207104700,91.46324920654297,35.781494140625,0.014278000220656395,-0.03184099867939949,0.025808999314904213,0.09631100296974182,-1.1539380550384521,-9.515657424926758
2207114700,91.46785736083984,35.781494140625,0.0222960002720356,-0.03466600179672241,0.011834999546408653,0.12562300264835358,-1.0408769845962524,-9.500701904296875
2207124700,91.46222686767578,35.77691650390625,0.01473699975758791,-0.023747000843286514,0.014201999641954899,-0.0017940000398084521,-1.1246260404586792,-9.468399047851562
2207134700,91.4642562866211,35.78607177734375,0.01565299928188324,-0.03711000084877014,0.00992599967867136,0.10588199645280838,-1.1096709966659546,-9.533004760742188
2207144700,91.46785736083984,35.781494140625,0.011834999546408653,-0.024204999208450317,0.007482999935746193,0.022731000557541847,-1.1060819625854492,-9.475577354431152
2207154700,91.46758270263672,35.7906494140625,0.009085999801754951,-0.03375000134110451,0.023365000262856483,0.03888300061225891,-1.11326003074646,-9.494120597839355
2207164700,91.46656799316406,35.78607177734375,0.02237199991941452,-0.023289000615477562,0.0037410000804811716,0.12741699814796448,-1.0528409481048584,-9.488738059997559
2207174700,91.46453857421875,35.77691650390625,0.006260999944061041,-0.035659000277519226,0.030084999278187752,0.04845400154590607,-1.125223994255066,-9.484550476074219
2207184700,91.47118377685547,35.78607177734375,0.017103999853134155,-0.030848000198602676,-0.0029770000837743282,0.11844400316476822,-1.1018940210342407,-9.530014038085938
2207194700,91.46195983886719,35.78607177734375,0.013744000345468521,-0.03375000134110451,0.013744000345468521,0.03828499838709831,-1.1018940210342407,-9.455836296081543
2207204700,91.47477722167969,35.781494140625,0.00901000015437603,-0.025655999779701233,-0.016875000670552254,0.07537300139665604,-1.1341969966888428,-9.46780014038086
2207214700,91.4734878540039,35.78607177734375,0.018478000536561012,-0.035659000277519226,0.034742001444101334,0.12023899704217911,-1.0618150234222412,-9.519246101379395
2207224700,91.46656799316406,35.78607177734375,0.016110999509692192,-0.035200998187065125,-0.02023399993777275,0.03349899873137474,-1.0803589820861816,-9.476175308227539
2207234700,91.46656799316406,35.78607177734375,0.004275999963283539,-0.04092700034379959,0.041919998824596405,0.05383799970149994,-1.1377869844436646,-9.523432731628418
2207244700,91.46453857421875,35.77691650390625,0.012903999537229538,-0.03138300031423569,0.013819999992847443,0.07238200306892395,-1.1102689504623413,-9.534200668334961
2207254700,91.47274780273438,35.7723388671875,0.009085999801754951,-0.03229900076985359,0.016645999625325203,0.036490000784397125,-1.1198400259017944,-9.492924690246582
2207264700,91.46556091308594,35.781494140625,0.010994999669492245,-0.03184099867939949,0.020997999235987663,0.07417699694633484,-1.1300100088119507,-9.495318412780762
2207274700,91.46887969970703,35.78607177734375,0.012369999662041664,-0.02519799955189228,0.012369999662041664,0.12382800132036209,-1.0971089601516724,-9.424131393432617
2207284700,91.46685028076172,35.77691650390625,0.028099000453948975,-0.02275400049984455,0.011377000249922276,0.06639999896287918,-1.1318049430847168,-9.504290580749512
2207294700,91.47016906738281,35.781494140625,-0.003283000085502863,-0.029015999287366867,0.00572599982842803,0.08733800053596497,-1.124027967453003,-9.491129875183105
2207304700,91.46324920654297,35.781494140625,0.01336199976503849,-0.02993199974298477,0.02000500075519085,0.06759700179100037,-1.116250991821289,-9.474979400634766
2207314700,91.46758270263672,35.7906494140625,0.00572599982842803,-0.033291999250650406,-0.0009919999865815043,0.07417699694633484,-1.1796610355377197,-9.500701904296875
2207324700,91.46785736083984,35.781494140625,0.028557000681757927,-0.029015999287366867,-0.009620999917387962,0.05922200158238411,-1.1258230209350586,-9.519844055175781
2207334700,91.46556091308594,35.781494140625,0.019089000299572945,-0.018478000536561012,0.0023670000955462456,0.06939099729061127,-1.1605180501937866,-9.46241569519043
2207344700,91.47579956054688,35.78607177734375,0.026189999654889107,-0.021838000044226646,-0.01107100024819374,0.11844400316476822,-1.033100962638855,-9.512665748596191
2207354700,91.47118377685547,35.78607177734375,0.01336199976503849,-0.030389999970793724,-0.006260999944061041,0.08853399753570557,-1.0743770599365234,-9.455238342285156
2207364700,91.46556091308594,35.781494140625,0.01626400090754032,-0.03138300031423569,-0.0034360000863671303,0.11904200166463852,-1.0869389772415161,-9.506085395812988
2207374700,91.47477722167969,35.781494140625,0.024281000718474388,-0.030389999970793724,-0.02542700059711933,0.06759700179100037,-1.0863410234451294,-9.489933967590332
2207384700,91.4642562866211,35.78607177734375,0.013819999992847443,-0.037567999213933945,0.02054000087082386,0.07597199827432632,-1.0941179990768433,-9.472585678100586
2207394700,91.46785736083984,35.781494140625,0.012369999662041664,-0.02466299943625927,-0.009162000380456448,0.09272100031375885,-1.104287028312683,-9.494120597839355
2207404700,91.47248077392578,35.781494140625,0.01565299928188324,-0.026114000007510185,0.025655999779701233,0.03230300173163414,-1.112064003944397,-9.491129875183105
2207414700,91.47248077392578,35.781494140625,0.021838000044226646,-0.03848399966955185,0.007023999933153391,0.04546299949288368,-1.098902940750122,-9.503093719482422
2207424700,91.46656799316406,35.78607177734375,0.019547000527381897,-0.02519799955189228,0.031000999733805656,0.062212999910116196,-1.0923229455947876,-9.489336013793945
2207434700,91.4586410522461,35.781494140625,0.030465999618172646,-0.04237800091505051,0.024358000606298447,0.04426699876785278,-1.1012959480285645,-9.535996437072754
2207444700,91.46656799316406,35.78607177734375,0.00419900007545948,-0.035200998187065125,0.010383999906480312,0.056829001754522324,-1.082751989364624,-9.503093719482422
2207454700,91.46887969970703,35.78607177734375,0.021838000044226646,-0.033291999250650406,0.030007999390363693,0.07477500289678574,-1.0743770599365234,-9.500701904296875
2207464700,91.46656799316406,35.78607177734375,0.015270999632775784,-0.03420799970626831,0.0003809999907389283,0.0843459963798523,-1.112064003944397,-9.507880210876465
2207474700,91.4714584350586,35.77691650390625,0.006184000056236982,-0.02466299943625927,0.01763799972832203,0.06460600346326828,-1.0863410234451294,-9.472585678100586
2207484700,91.46785736083984,35.781494140625,0.01763799972832203,-0.021838000044226646,0.021913999691605568,0.10947100073099136,-1.0761710405349731,-9.488738059997559
2207494700,91.4714584350586,35.77691650390625,0.009085999801754951,-0.01802000030875206,-0.008704000152647495,0.07238200306892395,-1.0851449966430664,-9.510870933532715
2207504700,91.46785736083984,35.781494140625,0.010383999906480312,-0.02466299943625927,-0.01259899977594614,0.11724799871444702,-1.11326003074646,-9.479166030883789
2207514700,91.46222686767578,35.77691650390625,0.01336199976503849,-0.02466299943625927,-0.0034360000863671303,0.08075699955224991,-1.080957055091858,-9.503093719482422
2207524700,91.47477722167969,35.781494140625,0.01809599995613098,-0.024204999208450317,0.003283000085502863,0.02691899985074997,-1.0857429504394531,-9.460023880004883
2207534700,91.46887969970703,35.78607177734375,0.0029009999707341194,-0.030389999970793724,-0.010079000145196915,0.11605100333690643,-1.0660020112991333,-9.403194427490234
2207544700,91.46556091308594,35.781494140625,0.02000500075519085,-0.02466299943625927,-0.022066999226808548,0.055633001029491425,-1.0851449966430664,-9.558728218078613
2207554700,91.47118377685547,35.78607177734375,0.007712000049650669,-0.03711000084877014,0.01626400090754032,0.049651000648736954,-1.09471595287323,-9.451648712158203
2207564700,91.46914672851562,35.77691650390625,0.016798000782728195,-0.030465999618172646,0.001984999980777502,0.05144499987363815,-1.0887340307235718,-9.508478164672852
2207574700,91.46685028076172,35.77691650390625,0.004352000076323748,-0.028480999171733856,0.01572900079190731,0.03948099911212921,-1.0863410234451294,-9.504888534545898
2207584700,91.4734878540039,35.78607177734375,0.017179999500513077,-0.03420799970626831,0.026724999770522118,0.03230300173163414,-1.1246260404586792,-9.55812931060791
2207594700,91.47016906738281,35.781494140625,0.011452999897301197,-0.032832998782396317,-0.003894000081345439,0.11006899923086166,-1.1012959480285645,-9.486345291137695
2207604700,91.46785736083984,35.781494140625,0.021913999691605568,-0.03711000084877014,0.035353001207113266,0.10827499628067017,-1.0677969455718994,-9.43489933013916
2207614700,91.46656799316406,35.78607177734375,0.019547000527381897,-0.03420799970626831,0.008551999926567078,0.07477500289678574,-1.1018940210342407,-9.521040916442871
2207624700,91.4734878540039,35.78607177734375,0.008551999926567078,-0.029015999287366867,0.020082000643014908,0.12741699814796448,-1.050449013710022,-9.497711181640625
2207634700,91.46785736083984,35.781494140625,0.023823000490665436,-0.02947399951517582,0.02290700003504753,0.02811500057578087,-1.0941179990768433,-9.511468887329102
2207644700,91.46195983886719,35.78607177734375,-0.0023670000955462456,-0.025120999664068222,0.005191999953240156,0.04606100171804428,-1.0911270380020142,-9.455836296081543
2207654700,91.47118377685547,35.78607177734375,0.016186999157071114,-0.02710700035095215,0.015270999632775784,0.05383799970149994,-1.1228320598602295,-9.496514320373535
2207664700,91.46785736083984,35.781494140625,0.019089000299572945,-0.026572000235319138,-0.0053449999541044235,0.03828499838709831,-1.1389830112457275,-9.481558799743652
2207674700,91.47016906738281,35.781494140625,0.009544000029563904,-0.023747000843286514,0.0022899999748915434,0.1250240057706833,-1.0941179990768433,-9.491728782653809
2207684700,91.46887969970703,35.78607177734375,0.019089000299572945,-0.023289000615477562,0.013819999992847443,0.01016900036484003,-1.1341969966888428,-9.501897811889648
2207694700,91.46656799316406,35.78607177734375,0.017562000080943108,-0.03138300031423569,-0.0011449999874457717,0.14715799689292908,-1.0887340307235718,-9.509077072143555
2207704700,91.46324920654297,35.781494140625,0.008016999810934067,-0.02993199974298477,0.03428399935364723,0.002392000053077936,-1.1090730428695679,-9.506085395812988
2207714700,91.46324920654297,35.781494140625,0.025731999427080154,-0.03229900076985359,-0.025885000824928284,0.10767699778079987,-1.06659996509552,-9.522834777832031
2207724700,91.47118377685547,35.78607177734375,0.0038169999606907368,-0.028023000806570053,0.01191100012511015,0.10947100073099136,-1.1192419528961182,-9.506085395812988
2207734700,91.46914672851562,35.77691650390625,0.014278000220656395,-0.02947399951517582,0.030084999278187752,0.04785599932074547,-1.0785640478134155,-9.501897811889648
2207744700,91.46785736083984,35.781494140625,0.01763799972832203,-0.028023000806570053,0.006184000056236982,0.13399800658226013,-1.0893319845199585,-9.470192909240723
2207754700,91.47016906738281,35.781494140625,0.01802000030875206,-0.03657500073313713,0.01320900022983551,0.10588199645280838,-1.0677969455718994,-9.46899700164795
2207764700,91.46582794189453,35.7723388671875,0.014201999641954899,-0.0275650005787611,0.001297999988310039,0.09272100031375885,-1.1108670234680176,-9.504888534545898
2207774700,91.46556091308594,35.781494140625,0.010994999669492245,-0.028480999171733856,0.01572900079190731,0.10049799829721451,-1.082751989364624,-9.516853332519531
2207784700,91.47248077392578,35.781494140625,0.019089000299572945,-0.021838000044226646,-0.0034360000863671303,0.04905200004577637,-1.1048849821090698,-9.525825500488281
2207794700,91.4734878540039,35.78607177734375,0.008016999810934067,-0.02993199974298477,0.025655999779701233,0.06520400196313858,-1.1018940210342407,-9.509675025939941
2207804700,91.47579956054688,35.78607177734375,0.019013000652194023,-0.028023000806570053,0.0022140000946819782,0.09152500331401825,-1.1048849821090698,-9.460023880004883
2207814700,91.46785736083984,35.781494140625,-0.004734000191092491,-0.04138600081205368,-0.014888999983668327,0.1034889966249466,-1.1288139820098877,-9.507282257080078
2207824700,91.46556091308594,35.781494140625,0.012369999662041664,-0.02038699947297573,-0.0005339999916031957,0.05383799970149994,-1.0701889991760254,-9.538389205932617
2207834700,91.46785736083984,35.781494140625,0.014355000108480453,-0.02275400049984455,-0.004734000191092491,0.10468500107526779,-1.1401790380477905,-9.495916366577148
2207844700,91.46324920654297,35.781494140625,0.010537000373005867,-0.01992899924516678,-0.02680099941790104,0.0831499993801117,-1.035493016242981,-9.54676342010498
2207854700,91.47219848632812,35.7906494140625,7.599999662488699e-05,-0.038026001304388046,0.02244899980723858,0.07597199827432632,-1.0725820064544678,-9.55394172668457
2207864700,91.46785736083984,35.781494140625,0.01473699975758791,-0.028480999171733856,-0.014965999871492386,0.06939099729061127,-1.1371879577636719,-9.43250560760498
2207874700,91.4734878540039,35.78607177734375,0.00901000015437603,-0.032756999135017395,0.03665100038051605,0.07477500289678574,-1.0600199699401855,-9.496514320373535
2207884700,91.47016906738281,35.781494140625,0.010919000022113323,-0.04566200077533722,0.02038699947297573,0.04665999859571457,-1.1222330331802368,-9.458827018737793
2207894700,91.46324920654297,35.781494140625,0.011834999546408653,-0.021838000044226646,0.016110999509692192,0.061615001410245895,-1.1192419528961182,-9.483951568603516
2207904700,91.47118377685547,35.78607177734375,0.012369999662041664,-0.03901800140738487,0.037262000143527985,0.04546299949288368,-1.1048849821090698,-9.46480941772461
2207914700,91.46556091308594,35.781494140625,0.01473699975758791,-0.017026999965310097,-0.006719000171869993,0.04486500099301338,-1.1545360088348389,-9.446863174438477
2207924700,91.47016906738281,35.781494140625,0.02054000087082386,-0.028023000806570053,0.02244899980723858,0.11964099854230881,-1.0803589820861816,-9.54556655883789
2207934700,91.46222686767578,35.77691650390625,0.022830000147223473,-0.02664799988269806,-0.001449999981559813,0.06819500029087067,-1.1054840087890625,-9.492924690246582
2207944700,91.46914672851562,35.77691650390625,0.004275999963283539,-0.030389999970793724,0.006643000058829784,0.07597199827432632,-1.125223994255066,-9.461219787597656
2207954700,91.45993041992188,35.77691650390625,0.0024429999757558107,-0.03138300031423569,0.010002000257372856,0.12083700299263,-1.0648059844970703,-9.522834777832031
2207964700,91.47016906738281,35.781494140625,0.00572599982842803,-0.030389999970793724,0.0028250000905245543,0.07118599861860275,-1.0791620016098022,-9.540781021118164
2207974700,91.4714584350586,35.77691650390625,-0.0023670000955462456,-0.02710700035095215,0.005191999953240156,0.09451600164175034,-1.0761710405349731,-9.465407371520996
2207984700,91.46758270263672,35.7906494140625,0.021913999691605568,-0.023747000843286514,0.001373999984934926,0.102292999625206,-1.1473579406738281,-9.481558799743652
2207994700,91.46988677978516,35.7906494140625,0.017179999500513077,-0.02275400049984455,-0.008704000152647495,0.06879299879074097,-1.1048849821090698,-9.54556655883789
2208004700,91.46887969970703,35.78607177734375,0.02237199991941452,-0.03138300031423569,0.014278000220656395,0.04067699983716011,-1.1114660501480103,-9.507282257080078
2208014700,91.46785736083984,35.781494140625,0.023365000262856483,-0.021379999816417694,0.007559000048786402,0.06879299879074097,-1.116250991821289,-9.473183631896973
2208024700,91.46656799316406,35.78607177734375,0.009085999801754951,-0.021838000044226646,0.0028250000905245543,0.09571199864149094,-1.0857429504394531,-9.476773262023926
2208034700,91.46656799316406,35.78607177734375,0.023823000490665436,-0.03229900076985359,-0.008704000152647495,0.02632099948823452,-1.120439052581787,-9.512665748596191
2208044700,91.47118377685547,35.78607177734375,0.0029009999707341194,-0.03711000084877014,0.01336199976503849,0.07477500289678574,-1.128214955329895,-9.47378158569336
2208054700,91.47118377685547,35.78607177734375,0.010994999669492245,-0.03375000134110451,-7.599999662488699e-05,0.06101600080728531,-1.1156530380249023,-9.491129875183105
2208064700,91.46914672851562,35.77691650390625,0.0024429999757558107,-0.023212000727653503,0.01763799972832203,0.05922200158238411,-1.1186439990997314,-9.519844055175781
2208074700,91.46556091308594,35.781494140625,0.019547000527381897,-0.04039299860596657,0.023900000378489494,0.05443599820137024,-1.0935189723968506,-9.506684303283691
2208084700,91.47016906738281,35.781494140625,0.020921999588608742,-0.03138300031423569,-0.008781000040471554,0.06819500029087067,-1.0977070331573486,-9.543771743774414
2208094700,91.47118377685547,35.78607177734375,0.008016999810934067,-0.03420799970626831,0.026189999654889107,0.07058800011873245,-1.1437690258026123,-9.524629592895508
2208104700,91.47477722167969,35.781494140625,0.010459999553859234,-0.03375000134110451,0.01763799972832203,0.03230300173163414,-1.1186439990997314,-9.515657424926758
2208114700,91.46556091308594,35.781494140625,0.01809599995613098,-0.028480999171733856,0.006643000058829784,0.03409700095653534,-1.128214955329895,-9.482754707336426
2208124700,91.47248077392578,35.781494140625,0.030007999390363693,-0.030923999845981598,0.015270999632775784,0.06101600080728531,-1.1180460453033447,-9.474381446838379
2208134700,91.46785736083984,35.781494140625,-0.001373999984934926,-0.026114000007510185,-0.007712000049650669,0.06639999896287918,-1.0995010137557983,-9.503692626953125
2208144700,91.46453857421875,35.77691650390625,0.0023670000955462456,-0.028023000806570053,0.015194999985396862,0.05204299837350845,-1.0767699480056763,-9.513861656188965
2208154700,91.46887969970703,35.78607177734375,0.026572000235319138,-0.01802000030875206,-0.01259899977594614,0.04725800082087517,-1.1096709966659546,-9.488139152526855
2208164700,91.46656799316406,35.78607177734375,0.015270999632775784,-0.023747000843286514,-0.01107100024819374,0.07357899844646454,-1.1222330331802368,-9.516255378723145
2208174700,91.47118377685547,35.78607177734375,0.0038169999606907368,-0.029015999287366867,0.014278000220656395,0.09810499846935272,-1.0863410234451294,-9.498309135437012
2208184700,91.46887969970703,35.78607177734375,0.011452999897301197,-0.023747000843286514,-0.012980000115931034,0.06819500029087067,-1.0899300575256348,-9.510870933532715
2208194700,91.47248077392578,35.781494140625,0.019547000527381897,-0.032832998782396317,0.020997999235987663,0.07776600122451782,-1.1156530380249023,-9.494120597839355
2208204700,91.47477722167969,35.781494140625,0.006719000171869993,-0.032832998782396317,0.017179999500513077,0.08075699955224991,-1.0953140258789062,-9.491129875183105
2208214700,91.46914672851562,35.77691650390625,0.013896999880671501,-0.020921999588608742,0.010537000373005867,0.11724799871444702,-1.09471595287323,-9.522236824035645
2208224700,91.47219848632812,35.7906494140625,0.016721999272704124,-0.03428399935364723,0.02015800029039383,0.07298099994659424,-1.125223994255066,-9.498907089233398
2208234700,91.47653198242188,35.7998046875,0.022830000147223473,-0.02710700035095215,0.0038169999606907368,0.055633001029491425,-1.06659996509552,-9.508478164672852
2208244700,91.47016906738281,35.781494140625,0.011452999897301197,-0.03420799970626831,0.021913999691605568,0.07058800011873245,-1.0785640478134155,-9.534798622131348
2208254700,91.46556091308594,35.781494140625,0.013819999992847443,-0.028480999171733856,-0.0024429999757558107,0.09032899886369705,-1.1222330331802368,-9.548558235168457
2208264700,91.46527862548828,35.7906494140625,0.014278000220656395,-0.02993199974298477,0.024358000606298447,0.08614099770784378,-1.0851449966430664,-9.520442008972168
2208274700,91.46324920654297,35.781494140625,0.02000500075519085,-0.03420799970626831,0.012369999662041664,0.056829001754522324,-1.0977070331573486,-9.484550476074219
2208284700,91.4714584350586,35.77691650390625,0.006260999944061041,-0.030848000198602676,0.00572599982842803,0.10707800090312958,-1.0983049869537354,-9.46062183380127
2208294700,91.4734878540039,35.78607177734375,0.004809999838471413,-0.035200998187065125,-0.008170000277459621,0.09152500331401825,-1.079761028289795,-9.489933967590332
2208304700,91.46785736083984,35.781494140625,0.019547000527381897,-0.032832998782396317,-0.007712000049650669,0.08614099770784378,-1.1222330331802368,-9.472585678100586
2208314700,91.47016906738281,35.781494140625,0.012903999537229538,-0.0275650005787611,-0.0053449999541044235,0.025722000747919083,-1.1096709966659546,-9.482754707336426
2208324700,91.46556091308594,35.781494140625,0.020997999235987663,-0.028557000681757927,0.006643000058829784,0.050248999148607254,-1.0594220161437988,-9.528219223022461
2208334700,91.46556091308594,35.781494140625,0.014659999869763851,-0.039935000240802765,-0.008781000040471554,0.03409700095653534,-1.0821540355682373,-9.46062183380127
2208344700,91.47219848632812,35.7906494140625,0.01802000030875206,-0.028480999171733856,0.024281000718474388,0.09989999979734421,-1.082751989364624,-9.45942497253418
2208354700,91.46914672851562,35.77691650390625,0.021379999816417694,-0.03375000134110451,0.01802000030875206,0.04546299949288368,-1.0977070331573486,-9.519246101379395
2208364700,91.46222686767578,35.77691650390625,0.003283000085502863,-0.0275650005787611,0.00939099956303835,0.0628110021352768,-1.1126619577407837,-9.486345291137695
2208374700,91.47219848632812,35.7906494140625,0.016645999625325203,-0.03901800140738487,0.030542999505996704,0.07118599861860275,-1.1096709966659546,-9.509675025939941
2208384700,91.47219848632812,35.7906494140625,0.021455999463796616,-0.026114000007510185,-0.009620999917387962,0.09152500331401825,-1.115054965019226,-9.484550476074219
2208394700,91.46685028076172,35.77691650390625,0.00572599982842803,-0.03420799970626831,0.01763799972832203,0.07058800011873245,-1.1078760623931885,-9.497711181640625
2208404700,91.46656799316406,35.78607177734375,0.015270999632775784,-0.02993199974298477,-0.021151000633835793,0.08075699955224991,-1.06659996509552,-9.498309135437012
2208414700,91.46656799316406,35.78607177734375,0.016645999625325203,-0.024204999208450317,0.01336199976503849,0.0831499993801117,-1.1108670234680176,-9.488139152526855
2208424700,91.47118377685547,35.78607177734375,0.013819999992847443,-0.03665100038051605,0.004734000191092491,0.10049799829721451,-1.1126619577407837,-9.527023315429688
2208434700,91.4734878540039,35.78607177734375,0.004275999963283539,-0.025655999779701233,0.008093000389635563,0.09451600164175034,-1.0887340307235718,-9.506684303283691
2208444700,91.47118377685547,35.78607177734375,0.023365000262856483,-0.023289000615477562,-7.599999662488699e-05,0.06639999896287918,-1.0881359577178955,-9.534798622131348
2208454700,91.47606658935547,35.77691650390625,0.010079000145196915,-0.032832998782396317,0.005268000066280365,0.06939099729061127,-1.1108670234680176,-9.516255378723145
2208464700,91.46324920654297,35.781494140625,0.010079000145196915,-0.03237500041723251,0.009620999917387962,0.09571199864149094,-1.1144570112228394,-9.503692626953125
2208474700,91.46914672851562,35.77691650390625,0.025655999779701233,-0.019471000880002975,-0.0030539999715983868,0.07178399711847305,-1.0815550088882446,-9.479763984680176
2208484700,91.46656799316406,35.78607177734375,0.015194999985396862,-0.019471000880002975,-0.012140000239014626,0.08973000198602676,-1.1060819625854492,-9.501299858093262
2208494700,91.47321319580078,35.79522705078125,0.016186999157071114,-0.02466299943625927,0.014278000220656395,0.0831499993801117,-1.104287028312683,-9.517451286315918
2208504700,91.47016906738281,35.781494140625,0.023365000262856483,-0.037567999213933945,-0.008704000152647495,0.05862399935722351,-1.1389830112457275,-9.519246101379395
2208514700,91.46887969970703,35.78607177734375,0.016568999737501144,-0.030923999845981598,0.021379999816417694,0.06999000161886215,-1.0965100526809692,-9.494120597839355
2208524700,91.46914672851562,35.77691650390625,0.016645999625325203,-0.033291999250650406,0.007482999935746193,0.04905200004577637,-1.144366979598999,-9.489336013793945
2208534700,91.47118377685547,35.78607177734375,0.004809999838471413,-0.034742001444101334,0.020082000643014908,0.08973000198602676,-1.100100040435791,-9.527023315429688
2208544700,91.47118377685547,35.78607177734375,0.010459999553859234,-0.03375000134110451,0.00901000015437603,0.10707800090312958,-1.11326003074646,-9.522236824035645
2208554700,91.46758270263672,35.7906494140625,0.010537000373005867,-0.030923999845981598,0.015270999632775784,0.049651000648736954,-1.1114660501480103,-9.512067794799805
2208564700,91.46988677978516,35.7906494140625,0.01336199976503849,-0.03138300031423569,0.012369999662041664,0.05862399935722351,-1.0923229455947876,-9.512067794799805
2208574700,91.46556091308594,35.781494140625,0.010994999669492245,-0.02519799955189228,0.008551999926567078,0.07417699694633484,-1.115054965019226,-9.55095100402832
2208584700,91.46785736083984,35.781494140625,0.01191100012511015,-0.03665100038051605,0.02290700003504753,0.030508000403642654,-1.124027967453003,-9.537790298461914
2208594700,91.47118377685547,35.78607177734375,0.012903999537229538,-0.028480999171733856,0.008093000389635563,0.07058800011873245,-1.0881359577178955,-9.498907089233398
2208604700,91.4734878540039,35.78607177734375,0.01336199976503849,-0.02993199974298477,0.001373999984934926,0.11305999755859375,-1.1066800355911255,-9.4660062789917
2208614700,91.46785736083984,35.781494140625,0.01763799972832203,-0.02519799955189228,0.007100999820977449,0.09451600164175034,-1.1006979942321777,-9.492326736450195
2208624700,91.46656799316406,35.78607177734375,0.030084999278187752,-0.021379999816417694,-0.004734000191092491,0.09750699996948242,-1.1036889553070068,-9.479166030883789
2208634700,91.47118377685547,35.78607177734375,0.021074000746011734,-0.025655999779701233,-0.0038169999606907368,0.1028909981250763,-1.1228320598602295,-9.501299858093262
2208644700,91.47118377685547,35.78607177734375,0.013819999992847443,-0.032832998782396317,0.013286000117659569,0.09272100031375885,-1.079761028289795,-9.493522644042969
2208654700,91.47016906738281,35.781494140625,0.009085999801754951,-0.026572000235319138,-7.599999662488699e-05,0.07178399711847305,-1.1024930477142334,-9.487541198730469
2208664700,91.46887969970703,35.78607177734375,0.019013000652194023,-0.03229900076985359,0.010383999906480312,0.09690900146961212,-1.1060819625854492,-9.500701904296875
2208674700,91.46887969970703,35.78607177734375,0.023289000615477562,-0.0275650005787611,-0.002595999976620078,0.04067699983716011,-1.0935189723968506,-9.489933967590332
2208684700,91.46887969970703,35.78607177734375,0.008627999573946,-0.03711000084877014,0.010919000022113323,0.061615001410245895,-1.1389830112457275,-9.4719877243042
2208694700,91.46656799316406,35.78607177734375,0.01244600024074316,-0.03665100038051605,0.006643000058829784,0.08793599903583527,-1.112064003944397,-9.514459609985352
2208704700,91.47248077392578,35.781494140625,0.0038169999606907368,-0.03229900076985359,0.016186999157071114,0.05922200158238411,-1.1174479722976685,-9.501897811889648
2208714700,91.46685028076172,35.77691650390625,0.010994999669492245,-0.028023000806570053,0.025808999314904213,0.07118599861860275,-1.1174479722976685,-9.495916366577148
2208724700,91.47118377685547,35.78607177734375,0.014813000336289406,-0.028023000806570053,0.007559000048786402,0.0634090006351471,-1.1330009698867798,-9.506085395812988
2208734700,91.46656799316406,35.78607177734375,0.01572900079190731,-0.029015999287366867,0.01763799972832203,0.05144499987363815,-1.1138579845428467,-9.506085395812988
2208744700,91.46250915527344,35.76776123046875,0.022982999682426453,-0.0275650005787611,-0.008551999926567078,0.07896299660205841,-1.083948016166687,-9.480362892150879
2208754700,91.46785736083984,35.781494140625,0.014430999755859375,-0.0275650005787611,0.013438999652862549,0.06101600080728531,-1.1174479722976685,-9.525825500488281
2208764700,91.46785736083984,35.781494140625,0.010002000257372856,-0.03138300031423569,0.021455999463796616,0.04905200004577637,-1.1012959480285645,-9.504888534545898
2208774700,91.47118377685547,35.78607177734375,0.017179999500513077,-0.024204999208450317,-0.0005339999916031957,0.043069999665021896,-1.1066800355911255,-9.465407371520996
2208784700,91.47016906738281,35.781494140625,0.009085999801754951,-0.03229900076985359,-0.007253000047057867,0.04426699876785278,-1.1186439990997314,-9.466604232788086
2208794700,91.47016906738281,35.781494140625,0.009085999801754951,-0.028480999171733856,0.003283000085502863,0.08614099770784378,-1.0929210186004639,-9.483951568603516
2208804700,91.46324920654297,35.781494140625,0.0038169999606907368,-0.02038699947297573,-0.021609000861644745,0.05084700137376785,-1.1072779893875122,-9.454042434692383
2208814700,91.46453857421875,35.77691650390625,0.009544000029563904,-0.035200998187065125,0.03199300169944763,0.09391800314188004,-1.1222330331802368,-9.479763984680176
2208824700,91.46785736083984,35.781494140625,0.014278000220656395,-0.03184099867939949,-0.0005339999916031957,0.041873998939991,-1.1186439990997314,-9.503093719482422
2208834700,91.46656799316406,35.78607177734375,0.011452999897301197,-0.028480999171733856,0.030542999505996704,0.09810499846935272,-1.0965100526809692,-9.509675025939941
2208844700,91.46887969970703,35.78607177734375,0.01191100012511015,-0.03375000134110451,0.025273999199271202,0.0634090006351471,-1.1066800355911255,-9.471389770507812
2208854700,91.4734878540039,35.78607177734375,0.012903999537229538,-0.028480999171733856,0.007100999820977449,0.057427000254392624,-1.104287028312683,-9.485746383666992
2208864700,91.47219848632812,35.7906494140625,0.009085999801754951,-0.0437530018389225,0.034894999116659164,0.0843459963798523,-1.1318049430847168,-9.531209945678711
2208874700,91.4734878540039,35.78607177734375,0.0038169999606907368,-0.03375000134110451,-0.007253000047057867,0.06460600346326828,-1.0923229455947876,-9.477970123291016
2208884700,91.46685028076172,35.77691650390625,0.024281000718474388,-0.03229900076985359,0.029092000797390938,0.0843459963798523,-1.1431699991226196,-9.509675025939941
2208894700,91.46556091308594,35.781494140625,0.02054000087082386,-0.034742001444101334,0.014813000336289406,0.07896299660205841,-1.0857429504394531,-9.507880210876465
2208904700,91.46685028076172,35.77691650390625,0.008627999573946,-0.028480999171733856,0.003283000085502863,0.08554299920797348,-1.1036889553070068,-9.475577354431152
2208914700,91.46556091308594,35.781494140625,0.010002000257372856,-0.02466299943625927,0.0248160008341074,0.06759700179100037,-1.1066800355911255,-9.516255378723145
2208924700,91.47118377685547,35.78607177734375,0.004352000076323748,-0.025655999779701233,-0.001984999980777502,0.018543999642133713,-1.1186439990997314,-9.498309135437012
2208934700,91.46556091308594,35.781494140625,0.010994999669492245,-0.02519799955189228,-0.0005339999916031957,0.0209369994699955,-1.104287028312683,-9.489336013793945
2208944700,91.46324920654297,35.781494140625,0.020462999120354652,-0.03901800140738487,0.005191999953240156,0.03888300061225891,-1.1180460453033447,-9.46062183380127
2208954700,91.4609375,35.781494140625,0.01763799972832203,-0.025655999779701233,-0.0053449999541044235,0.04486500099301338,-1.1054840087890625,-9.479763984680176
2208964700,91.47477722167969,35.781494140625,0.013819999992847443,-0.025655999779701233,-0.0053449999541044235,0.07178399711847305,-1.0875370502471924,-9.497711181640625
2208974700,91.46656799316406,35.78607177734375,0.0019079999765381217,-0.028557000681757927,0.0037410000804811716,0.08853399753570557,-1.100100040435791,-9.474979400634766
2208984700,91.46324920654297,35.781494140625,0.006184000056236982,-0.025655999779701233,-0.0029009999707341194,0.09750699996948242,-1.0875370502471924,-9.534200668334961
2208994700,91.46887969970703,35.78607177734375,0.013819999992847443,-0.03184099867939949,0.004734000191092491,0.06520400196313858,-1.1126619577407837,-9.507880210876465
2209004700,91.46785736083984,35.781494140625,0.007176999934017658,-0.026114000007510185,-0.01779099926352501,0.09930200129747391,-1.1066800355911255,-9.495916366577148
2209014700,91.47016906738281,35.781494140625,0.012903999537229538,-0.03375000134110451,0.02916800044476986,0.08913200348615646,-1.0677969455718994,-9.533004760742188
2209024700,91.4714584350586,35.77691650390625,0.020997999235987663,-0.025655999779701233,-0.012521999888122082,0.10827499628067017,-1.1192419528961182,-9.489336013793945
2209034700,91.46785736083984,35.781494140625,0.01336199976503849,-0.034742001444101334,0.03680400177836418,0.10648000240325928,-1.1012959480285645,-9.481558799743652
2209044700,91.47248077392578,35.781494140625,0.021455999463796616,-0.035659000277519226,0.012827999889850616,0.11126600205898285,-1.082751989364624,-9.47378158569336
2209054700,91.46887969970703,35.78607177734375,0.017255999147892,-0.02993199974298477,0.0225249994546175,0.10827499628067017,-1.104287028312683,-9.476773262023926
2209064700,91.46453857421875,35.77691650390625,0.02916800044476986,-0.03138300031423569,0.031153999269008636,0.06819500029087067,-1.120439052581787,-9.498309135437012
2209074700,91.46887969970703,35.78607177734375,0.025273999199271202,-0.026572000235319138,-0.014430999755859375,0.06520400196313858,-1.098902940750122,-9.495318412780762
2209084700,91.46685028076172,35.77691650390625,0.012827999889850616,-0.024204999208450317,0.003283000085502863,0.08494500070810318,-1.120439052581787,-9.484550476074219
2209094700,91.46887969970703,35.78607177734375,0.0023670000955462456,-0.032832998782396317,-0.011682000011205673,0.10707800090312958,-1.0821540355682373,-9.486345291137695
2209104700,91.4714584350586,35.77691650390625,0.01802000030875206,-0.021302999928593636,0.00030499999411404133,0.10707800090312958,-1.1060819625854492,-9.505487442016602
2209114700,91.46785736083984,35.781494140625,0.02237199991941452,-0.03375000134110451,0.014278000220656395,0.056829001754522324,-1.112064003944397,-9.507880210876465
2209124700,91.46785736083984,35.781494140625,0.014355000108480453,-0.0275650005787611,-0.009162000380456448,0.09571199864149094,-1.0923229455947876,-9.530611991882324
2209134700,91.47248077392578,35.781494140625,0.02947399951517582,-0.02466299943625927,-0.0197759997099638,0.07776600122451782,-1.1168489456176758,-9.495916366577148
2209144700,91.46324920654297,35.781494140625,0.00901000015437603,-0.03420799970626831,0.007482999935746193,0.06400799751281738,-1.1084749698638916,-9.505487442016602
2209154700,91.46527862548828,35.7906494140625,0.016721999272704124,-0.02519799955189228,-0.021074000746011734,0.05204299837350845,-1.1024930477142334,-9.484550476074219
2209164700,91.47016906738281,35.781494140625,0.008627999573946,-0.025655999779701233,0.028176000341773033,0.08135499805212021,-1.0875370502471924,-9.513861656188965
2209174700,91.46656799316406,35.78607177734375,0.02237199991941452,-0.03375000134110451,-0.0029009999707341194,0.06879299879074097,-1.082751989364624,-9.487541198730469
2209184700,91.47551727294922,35.79522705078125,0.011452999897301197,-0.032756999135017395,0.025273999199271202,0.06520400196313858,-1.1156530380249023,-9.483951568603516
2209194700,91.47016906738281,35.781494140625,0.008627999573946,-0.033291999250650406,0.010919000022113323,0.07896299660205841,-1.1168489456176758,-9.494720458984375
2209204700,91.47016906738281,35.781494140625,0.012369999662041664,-0.0275650005787611,0.023365000262856483,0.06759700179100037,-1.1114660501480103,-9.502495765686035
2209214700,91.47450256347656,35.7906494140625,0.021455999463796616,-0.02993199974298477,0.02054000087082386,0.04845400154590607,-1.0935189723968506,-9.480362892150879
2209224700,91.46324920654297,35.781494140625,0.018631000071763992,-0.028480999171733856,-0.001984999980777502,0.04665999859571457,-1.1030910015106201,-9.482754707336426
2209234700,91.46887969970703,35.78607177734375,0.020462999120354652,-0.026114000007510185,0.02916800044476986,0.08614099770784378,-1.1036889553070068,-9.508478164672852
2209244700,91.46887969970703,35.78607177734375,0.016186999157071114,-0.030923999845981598,0.026724999770522118,0.037686001509428024,-1.0899300575256348,-9.476773262023926
2209254700,91.4734878540039,35.78607177734375,0.009085999801754951,-0.020921999588608742,-0.01107100024819374,0.06639999896287918,-1.1030910015106201,-9.491728782653809
2209264700,91.46785736083984,35.781494140625,0.008627999573946,-0.0275650005787611,0.010459999553859234,0.07477500289678574,-1.1156530380249023,-9.509675025939941
2209274700,91.46685028076172,35.77691650390625,0.01336199976503849,-0.02038699947297573,-0.012980000115931034,0.07477500289678574,-1.115054965019226,-9.463014602661133
2209284700,91.46324920654297,35.781494140625,0.007176999934017658,-0.015194999985396862,-0.019164999946951866,0.037686001509428024,-1.0600199699401855,-9.491129875183105
2209294700,91.4734878540039,35.78607177734375,0.01336199976503849,-0.03184099867939949,0.0056500001810491085,0.07238200306892395,-1.0971089601516724,-9.504888534545898
2209304700,91.46785736083984,35.781494140625,0.018554000183939934,-0.02519799955189228,-0.0053449999541044235,0.08913200348615646,-1.1006979942321777,-9.494720458984375
2209314700,91.46785736083984,35.781494140625,0.009085999801754951,-0.030389999970793724,0.026266999542713165,0.043069999665021896,-1.0779659748077393,-9.519844055175781
2209324700,91.46453857421875,35.77691650390625,0.005268000066280365,-0.033291999250650406,0.0056500001810491085,0.05324000120162964,-1.0863410234451294,-9.485746383666992
2209334700,91.46887969970703,35.78607177734375,0.009544000029563904,-0.035659000277519226,0.02718299999833107,0.083747997879982,-1.1048849821090698,-9.496514320373535
2209344700,91.4609375,35.781494140625,0.023823000490665436,-0.034742001444101334,0.029092000797390938,0.01435600034892559,-1.1126619577407837,-9.521040916442871
2209354700,91.46453857421875,35.77691650390625,0.005268000066280365,-0.02519799955189228,0.014278000220656395,0.09930200129747391,-1.0713859796524048,-9.491129875183105
2209364700,91.4734878540039,35.78607177734375,0.025731999427080154,-0.038026001304388046,0.02916800044476986,0.05264199897646904,-1.1078760623931885,-9.506684303283691
2209374700,91.47118377685547,35.78607177734375,0.01473699975758791,-0.029015999287366867,-0.016798000782728195,0.08135499805212021,-1.1228320598602295,-9.500701904296875
2209384700,91.46324920654297,35.781494140625,0.008093000389635563,-0.013744000345468521,0.004734000191092491,0.06879299879074097,-1.1102689504623413,-9.521040916442871
2209394700,91.46887969970703,35.78607177734375,0.015270999632775784,-0.034742001444101334,0.012827999889850616,0.14655999839305878,-1.0564310550689697,-9.453442573547363
2209404700,91.47450256347656,35.7906494140625,0.009544000029563904,-0.02519799955189228,-0.006260999944061041,0.07058800011873245,-1.116250991821289,-9.475577354431152
2209414700,91.47477722167969,35.781494140625,0.01336199976503849,-0.023747000843286514,-0.0024429999757558107,0.05383799970149994,-1.0779659748077393,-9.531209945678711
2209424700,91.46887969970703,35.78607177734375,0.014278000220656395,-0.023747000843286514,-0.008170000277459621,0.07896299660205841,-1.1174479722976685,-9.484550476074219
2209434700,91.47118377685547,35.78607177734375,0.017179999500513077,-0.024204999208450317,-0.0048859999515116215,0.11605100333690643,-1.0677969455718994,-9.461817741394043
2209444700,91.46556091308594,35.781494140625,0.009085999801754951,-0.030389999970793724,0.007559000048786402,0.07417699694633484,-1.0743770599365234,-9.525825500488281
2209454700,91.4734878540039,35.78607177734375,0.01763799972832203,-0.021838000044226646,0.0018319999799132347,0.09212300181388855,-1.050449013710022,-9.503093719482422
2209464700,91.46556091308594,35.781494140625,0.009085999801754951,-0.034742001444101334,-0.0005339999916031957,0.03469499945640564,-1.1246260404586792,-9.511468887329102
2209474700,91.4586410522461,35.781494140625,0.01191100012511015,-0.01802000030875206,-0.0009919999865815043,0.04665999859571457,-1.0911270380020142,-9.492924690246582
2209484700,91.47579956054688,35.78607177734375,0.013819999992847443,-0.028023000806570053,0.0037410000804811716,0.09690900146961212,-1.1180460453033447,-9.501897811889648
2209494700,91.46222686767578,35.77691650390625,0.0248160008341074,-0.02519799955189228,0.012369999662041664,0.0825520008802414,-1.0971089601516724,-9.486345291137695
2209504700,91.46785736083984,35.781494140625,0.010613000020384789,-0.023747000843286514,-0.0023670000955462456,0.10648000240325928,-1.0995010137557983,-9.478568077087402
2209514700,91.46785736083984,35.781494140625,0.02489200048148632,-0.028023000806570053,-0.001373999984934926,0.09451600164175034,-1.1108670234680176,-9.513861656188965
2209524700,91.47016906738281,35.781494140625,0.01763799972832203,-0.02519799955189228,-0.0029009999707341194,0.06939099729061127,-1.1168489456176758,-9.498309135437012
2209534700,91.46453857421875,35.77691650390625,0.014813000336289406,-0.01992899924516678,-0.0034360000863671303,0.07058800011873245,-1.1114660501480103,-9.521040916442871
2209544700,91.47940063476562,35.781494140625,0.017179999500513077,-0.021838000044226646,0.007100999820977449,0.0831499993801117,-1.100100040435791,-9.498309135437012
2209554700,91.46887969970703,35.78607177734375,0.02000500075519085,-0.02466299943625927,-0.01107100024819374,0.07477500289678574,-1.0941179990768433,-9.510870933532715
2209564700,91.46785736083984,35.781494140625,0.009162000380456448,-0.028480999171733856,-0.010459999553859234,0.11186400055885315,-1.1012959480285645,-9.437292098999023
2209574700,91.46785736083984,35.781494140625,0.019089000299572945,-0.028023000806570053,0.005191999953240156,0.09930200129747391,-1.1024930477142334,-9.515657424926758
2209584700,91.47016906738281,35.781494140625,0.009544000029563904,-0.01992899924516678,-0.006260999944061041,0.07058800011873245,-1.0869389772415161,-9.476773262023926
2209594700,91.46582794189453,35.7723388671875,0.0029770000837743282,-0.025655999779701233,0.0053449999541044235,0.04366900026798248,-1.0929210186004639,-9.540781021118164
2209604700,91.4642562866211,35.78607177734375,0.008704000152647495,-0.026114000007510185,0.008170000277459621,0.06939099729061127,-1.0857429504394531,-9.494720458984375
2209614700,91.4609375,35.781494140625,0.005268000066280365,-0.017562000080943108,-0.004809999838471413,0.043069999665021896,-1.1431699991226196,-9.476773262023926
2209624700,91.46556091308594,35.781494140625,0.006719000171869993,-0.018936000764369965,0.001373999984934926,0.10648000240325928,-1.0582250356674194,-9.509077072143555
2209634700,91.46324920654297,35.781494140625,0.01809599995613098,-0.016568999737501144,-0.0009919999865815043,-0.000598000013269484,-1.1126619577407837,-9.519246101379395
2209644700,91.46887969970703,35.78607177734375,0.020997999235987663,-0.028023000806570053,-0.010079000145196915,0.07118599861860275,-1.11326003074646,-9.485746383666992
2209654700,91.46758270263672,35.7906494140625,0.013438999652862549,-0.021838000044226646,0.003894000081345439,0.058024998754262924,-1.1802589893341064,-9.480362892150879
2209664700,91.47248077392578,35.781494140625,0.01580600067973137,-0.028557000681757927,-0.004275999963283539,0.055633001029491425,-1.0438679456710815,-9.495318412780762
2209674700,91.46887969970703,35.78607177734375,0.01336199976503849,-0.023747000843286514,0.0018319999799132347,0.06639999896287918,-1.0773680210113525,-9.509675025939941
2209684700,91.46556091308594,35.781494140625,0.01336199976503849,-0.028023000806570053,0.001373999984934926,0.10588199645280838,-1.0348949432373047,-9.522236824035645
2209694700,91.46785736083984,35.781494140625,0.016721999272704124,-0.0275650005787611,0.0037410000804811716,0.06101600080728531,-1.0277169942855835,-9.486943244934082
2209704700,91.46222686767578,35.77691650390625,0.010994999669492245,-0.03229900076985359,0.0004579999949783087,0.05862399935722351,-1.0821540355682373,-9.534798622131348
2209714700,91.46988677978516,35.7906494140625,0.011528999544680119,-0.021838000044226646,-0.0009159999899566174,0.061615001410245895,-1.1234300136566162,-9.468399047851562
2209724700,91.47118377685547,35.78607177734375,0.017255999147892,-0.029015999287366867,0.0009919999865815043,0.08973000198602676,-1.1018940210342407,-9.492326736450195
2209734700,91.4609375,35.781494140625,0.019547000527381897,-0.030923999845981598,0.001373999984934926,0.083747997879982,-1.1186439990997314,-9.52941608428955
2209744700,91.46527862548828,35.7906494140625,0.0019079999765381217,-0.026114000007510185,0.0003809999907389283,0.036490000784397125,-1.0881359577178955,-9.493522644042969
2209754700,91.46222686767578,35.77691650390625,-0.0023670000955462456,-0.028023000806570053,0.0023670000955462456,0.16869300603866577,-1.0767699480056763,-9.54975414276123
2209764700,91.46914672851562,35.77691650390625,0.008627999573946,-0.03229900076985359,-0.007253000047057867,0.11305999755859375,-1.0313060283660889,-9.55633544921875
2209774700,91.47016906738281,35.781494140625,0.019013000652194023,-0.017562000080943108,-0.0015269999857991934,0.07956100255250931,-1.133599042892456,-9.439085960388184
2209784700,91.46887969970703,35.78607177734375,0.021455999463796616,-0.03229900076985359,-0.01534700021147728,0.08135499805212021,-1.1060819625854492,-9.455836296081543
2209794700,91.46785736083984,35.781494140625,0.014278000220656395,-0.021379999816417694,-0.006794999819248915,0.036490000784397125,-1.125223994255066,-9.512665748596191
2209804700,91.46785736083984,35.781494140625,0.005268000066280365,-0.026114000007510185,0.0056500001810491085,0.02691899985074997,-1.1581259965896606,-9.431907653808594
2209814700,91.47016906738281,35.781494140625,0.006643000058829784,-0.02275400049984455,-0.0068720001727342606,0.04845400154590607,-1.1533399820327759,-9.57667350769043
2209824700,91.4642562866211,35.78607177734375,0.019013000652194023,-0.023747000843286514,0.006566000171005726,0.1016940027475357,-1.063609004020691,-9.543771743774414
2209834700,91.46887969970703,35.78607177734375,0.01809599995613098,-0.023747000843286514,-7.599999662488699e-05,0.11365900188684464,-1.0606180429458618,-9.431309700012207
2209844700,91.4642562866211,35.78607177734375,0.013819999992847443,-0.02947399951517582,-0.0034360000863671303,0.06041799858212471,-1.1515450477600098,-9.45643424987793
2209854700,91.46527862548828,35.7906494140625,0.017179999500513077,-0.0275650005787611,0.006643000058829784,0.07417699694633484,-1.120439052581787,-9.47079086303711
2209864700,91.46785736083984,35.781494140625,0.006184000056236982,-0.03184099867939949,-7.599999662488699e-05,0.07956100255250931,-1.172482967376709,-9.484550476074219
2209874700,91.46353149414062,35.7723388671875,0.01809599995613098,-0.0275650005787611,0.007100999820977449,0.10109599679708481,-1.1198400259017944,-9.484550476074219
2209884700,91.476806640625,35.7906494140625,0.014355000108480453,-0.02947399951517582,0.01191100012511015,0.058024998754262924,-1.1365900039672852,-9.46480941772461
2209894700,91.4681396484375,35.7723388671875,0.009468000382184982,-0.025120999664068222,-0.006413999944925308,0.05383799970149994,-1.0420739650726318,-9.479763984680176
2209904700,91.46887969970703,35.78607177734375,0.01802000030875206,-0.017562000080943108,-0.005421000067144632,0.06580200046300888,-1.0660020112991333,-9.512067794799805
2209914700,91.46785736083984,35.781494140625,0.017103999853134155,-0.01992899924516678,-0.005803000181913376,0.05144499987363815,-1.0935189723968506,-9.486943244934082
2209924700,91.46887969970703,35.78607177734375,0.017179999500513077,-0.030923999845981598,-0.0009919999865815043,0.11485499888658524,-1.0528409481048584,-9.493522644042969
2209934700,91.4734878540039,35.78607177734375,0.020997999235987663,-0.030923999845981598,-0.004352000076323748,0.05862399935722351,-1.1419739723205566,-9.451648712158203
2209944700,91.46324920654297,35.781494140625,0.011988000012934208,-0.023747000843286514,-0.0028250000905245543,0.03469499945640564,-1.0630110502243042,-9.520442008972168
2209954700,91.46785736083984,35.781494140625,0.012980000115931034,-0.030465999618172646,-0.0023670000955462456,0.07118599861860275,-1.1036889553070068,-9.535996437072754
2209964700,91.4642562866211,35.78607177734375,0.017179999500513077,-0.02275400049984455,-0.0053449999541044235,0.09391800314188004,-1.1192419528961182,-9.491728782653809
2209974700,91.46758270263672,35.7906494140625,0.010994999669492245,-0.02710700035095215,0.003283000085502863,0.11006899923086166,-1.1330009698867798,-9.517451286315918
2209984700,91.46556091308594,35.781494140625,0.011452999897301197,-0.026572000235319138,-0.0034360000863671303,0.08913200348615646,-1.1048849821090698,-9.497711181640625
2209994700,91.47118377685547,35.78607177734375,0.013819999992847443,-0.032832998782396317,-0.008704000152647495,0.06460600346326828,-1.098902940750122,-9.497711181640625
2210004700,91.47219848632812,35.7906494140625,0.012369999662041664,-0.029015999287366867,-0.0029770000837743282,0.09511400014162064,-1.070788025856018,-9.474979400634766
2210014700,91.46887969970703,35.78607177734375,0.023823000490665436,-0.017562000080943108,0.004275999963283539,0.1028909981250763,-1.0522429943084717,-9.524629592895508
2210024700,91.45733642578125,35.78607177734375,0.007559000048786402,-0.026572000235319138,0.006031999830156565,0.08135499805212021,-1.0630110502243042,-9.507880210876465
2210034700,91.4734878540039,35.78607177734375,0.015194999985396862,-0.025120999664068222,0.003664999967440963,0.0209369994699955,-1.116250991821289,-9.54556655883789
2210044700,91.46222686767578,35.77691650390625,0.009544000029563904,-0.034742001444101334,0.0009159999899566174,0.15433700382709503,-1.0815550088882446,-9.437292098999023
2210054700,91.4642562866211,35.78607177734375,0.01809599995613098,-0.023289000615477562,-0.0009919999865815043,0.08075699955224991,-1.1186439990997314,-9.476773262023926
2210064700,91.46656799316406,35.78607177734375,0.02000500075519085,-0.02466299943625927,-7.599999662488699e-05,0.10109599679708481,-1.0301100015640259,-9.437292098999023
2210074700,91.47016906738281,35.781494140625,0.01572900079190731,-0.02519799955189228,-0.007712000049650669,0.07956100255250931,-1.1066800355911255,-9.523432731628418
2210084700,91.46453857421875,35.77691650390625,0.02000500075519085,-0.025655999779701233,-0.013438999652862549,0.08913200348615646,-1.0671980381011963,-9.485148429870605
2210094700,91.47118377685547,35.78607177734375,0.01336199976503849,-0.0275650005787611,-0.004809999838471413,0.07417699694633484,-1.095911979675293,-9.551548957824707
2210104700,91.46556091308594,35.781494140625,0.008627999573946,-0.028480999171733856,-0.0028250000905245543,0.07537300139665604,-1.1144570112228394,-9.486345291137695
2210114700,91.46887969970703,35.78607177734375,0.017255999147892,-0.023289000615477562,-0.00572599982842803,0.09451600164175034,-1.0408769845962524,-9.461817741394043
2210124700,91.46785736083984,35.781494140625,0.014888999983668327,-0.024204999208450317,0.007712000049650669,0.07118599861860275,-1.0660020112991333,-9.445667266845703
2210134700,91.46527862548828,35.7906494140625,0.013896999880671501,-0.02710700035095215,-0.003283000085502863,0.03170400112867355,-1.1557329893112183,-9.514459609985352
2210144700,91.47248077392578,35.781494140625,0.01191100012511015,-0.023289000615477562,-0.007712000049650669,0.0831499993801117,-1.0671980381011963,-9.489336013793945
2210154700,91.46785736083984,35.781494140625,0.01763799972832203,-0.03138300031423569,0.0018319999799132347,0.06041799858212471,-1.065403938293457,-9.534798622131348
2210164700,91.46785736083984,35.781494140625,0.013819999992847443,-0.016568999737501144,-0.006260999944061041,0.06460600346326828,-1.0648059844970703,-9.488139152526855
2210174700,91.46556091308594,35.781494140625,0.013819999992847443,-0.03229900076985359,-0.003894000081345439,0.13280099630355835,-1.0899300575256348,-9.467202186584473
2210184700,91.46785736083984,35.781494140625,0.017179999500513077,-0.02664799988269806,-0.001984999980777502,0.11485499888658524,-1.0905280113220215,-9.490531921386719
2210194700,91.46988677978516,35.7906494140625,0.016721999272704124,-0.02519799955189228,0.0056500001810491085,0.08793599903583527,-1.083948016166687,-9.513263702392578
2210204700,91.47118377685547,35.78607177734375,0.010537000373005867,-0.023289000615477562,0.001373999984934926,0.06819500029087067,-1.0851449966430664,-9.483353614807129
2210214700,91.4642562866211,35.78607177734375,0.013819999992847443,-0.02275400049984455,-0.0009919999865815043,0.05264199897646904,-1.1359920501708984,-9.589834213256836
2210224700,91.46556091308594,35.781494140625,0.009085999801754951,-0.02038699947297573,0.008551999926567078,0.056829001754522324,-1.0905280113220215,-9.452844619750977
2210234700,91.47248077392578,35.781494140625,0.005268000066280365,-0.030923999845981598,0.012827999889850616,0.11784599721431732,-1.082751989364624,-9.505487442016602
2210244700,91.47118377685547,35.78607177734375,0.009544000029563904,-0.02038699947297573,0.003283000085502863,0.05922200158238411,-1.0725820064544678,-9.519246101379395
2210254700,91.47016906738281,35.781494140625,0.01191100012511015,-0.023747000843286514,-0.0053449999541044235,0.055633001029491425,-1.0821540355682373,-9.46780014038086
2210264700,91.46656799316406,35.78607177734375,0.01191100012511015,-0.025655999779701233,-0.0048859999515116215,0.11246199905872345,-1.0953140258789062,-9.491129875183105
2210274700,91.46656799316406,35.78607177734375,0.014813000336289406,-0.026572000235319138,-0.001984999980777502,0.0819540023803711,-1.120439052581787,-9.477372169494629
2210284700,91.47118377685547,35.78607177734375,0.01336199976503849,-0.03184099867939949,0.0009159999899566174,0.03230300173163414,-1.1072779893875122,-9.519246101379395
2210294700,91.47118377685547,35.78607177734375,0.0056500001810491085,-0.021838000044226646,0.0022140000946819782,0.05204299837350845,-1.1066800355911255,-9.501897811889648
2210304700,91.46887969970703,35.78607177734375,0.018478000536561012,-0.023289000615477562,-0.008245999924838543,0.1016940027475357,-1.1138579845428467,-9.509077072143555
2210314700,91.46887969970703,35.78607177734375,0.009085999801754951,-0.022830000147223473,0.001373999984934926,0.07716800272464752,-1.1024930477142334,-9.468399047851562
2210324700,91.47016906738281,35.781494140625,0.014813000336289406,-0.02710700035095215,0.0019079999765381217,0.07238200306892395,-1.1048849821090698,-9.479763984680176
2210334700,91.47118377685547,35.78607177734375,0.02244899980723858,-0.024204999208450317,0.001373999984934926,0.1405780017375946,-1.1036889553070068,-9.485148429870605
2210344700,91.47248077392578,35.781494140625,0.012369999662041664,-0.030389999970793724,0.0037410000804811716,0.0628110021352768,-1.1330009698867798,-9.524031639099121
2210354700,91.46988677978516,35.7906494140625,0.02038699947297573,-0.025655999779701233,0.000838999985717237,0.08494500070810318,-1.1030910015106201,-9.505487442016602
2210364700,91.46656799316406,35.78607177734375,0.01802000030875206,-0.02275400049984455,-0.0035119999665766954,0.10528399795293808,-1.1084749698638916,-9.498309135437012
2210374700,91.46656799316406,35.78607177734375,0.013819999992847443,-0.030923999845981598,0.003283000085502863,0.007178000174462795,-1.0971089601516724,-9.519844055175781
2210384700,91.46785736083984,35.781494140625,0.014278000220656395,-0.022830000147223473,-0.005803000181913376,0.04007900133728981,-1.1222330331802368,-9.525228500366211
2210394700,91.46785736083984,35.781494140625,0.005268000066280365,-0.035200998187065125,0.0009159999899566174,0.09631100296974182,-1.1012959480285645,-9.488738059997559
2210404700,91.4714584350586,35.77691650390625,0.006184000056236982,-0.03138300031423569,0.008093000389635563,0.06759700179100037,-1.1006979942321777,-9.538987159729004
2210414700,91.46656799316406,35.78607177734375,0.014813000336289406,-0.026114000007510185,-0.011988000012934208,0.1214350014925003,-1.1084749698638916,-9.491728782653809
2210424700,91.4734878540039,35.78607177734375,0.015270999632775784,-0.033291999250650406,0.005191999953240156,0.06520400196313858,-1.1180460453033447,-9.512665748596191
2210434700,91.47219848632812,35.7906494140625,0.02237199991941452,-0.03184099867939949,-0.009162000380456448,0.06101600080728531,-1.1264209747314453,-9.491728782653809
2210444700,91.46324920654297,35.781494140625,0.01809599995613098,-0.02038699947297573,-7.599999662488699e-05,0.08015900105237961,-1.1048849821090698,-9.45763111114502
2210454700,91.46453857421875,35.77691650390625,0.01336199976503849,-0.023747000843286514,-0.006260999944061041,0.09212300181388855,-1.1174479722976685,-9.492326736450195
2210464700,91.47579956054688,35.78607177734375,0.01191100012511015,-0.018478000536561012,0.0009159999899566174,0.08554299920797348,-1.1006979942321777,-9.535996437072754
2210474700,91.46324920654297,35.781494140625,0.018554000183939934,-0.023212000727653503,-0.002061000093817711,0.0628110021352768,-1.082751989364624,-9.501299858093262
2210484700,91.47248077392578,35.781494140625,0.016110999509692192,-0.026114000007510185,0.006031999830156565,0.09750699996948242,-1.100100040435791,-9.500102996826172
2210494700,91.46656799316406,35.78607177734375,0.012903999537229538,-0.03420799970626831,0.0028250000905245543,0.09391800314188004,-1.1060819625854492,-9.504290580749512
2210504700,91.46222686767578,35.77691650390625,0.016645999625325203,-0.029015999287366867,0.012827999889850616,0.0412760004401207,-1.100100040435791,-9.488738059997559
2210514700,91.46324920654297,35.781494140625,0.012521999888122082,-0.02710700035095215,0.003358999965712428,0.0412760004401207,-1.112064003944397,-9.510870933532715
2210524700,91.46887969970703,35.78607177734375,0.014355000108480453,-0.02710700035095215,0.007712000049650669,0.07656999677419662,-1.082751989364624,-9.496514320373535
2210534700,91.46988677978516,35.7906494140625,0.010994999669492245,-0.029015999287366867,0.003283000085502863,0.102292999625206,-1.0564310550689697,-9.511468887329102
2210544700,91.46785736083984,35.781494140625,0.017179999500513077,-0.028480999171733856,0.0022899999748915434,0.07776600122451782,-1.1144570112228394,-9.527621269226074
2210554700,91.476806640625,35.7906494140625,0.014278000220656395,-0.023289000615477562,0.008551999926567078,0.11485499888658524,-1.1222330331802368,-9.501299858093262
2210564700,91.46887969970703,35.78607177734375,0.006184000056236982,-0.023747000843286514,-0.0034360000863671303,0.06520400196313858,-1.1276170015335083,-9.491728782653809
2210574700,91.46758270263672,35.7906494140625,0.01809599995613098,-0.0275650005787611,0.0022899999748915434,0.0825520008802414,-1.0648059844970703,-9.506684303283691
2210584700,91.46324920654297,35.781494140625,0.010459999553859234,-0.02466299943625927,-0.004352000076323748,0.08015900105237961,-1.0773680210113525,-9.501299858093262
2210594700,91.46887969970703,35.78607177734375,0.012903999537229538,-0.028480999171733856,0.001373999984934926,0.05324000120162964,-1.0671980381011963,-9.497711181640625
2210604700,91.46785736083984,35.781494140625,0.012903999537229538,-0.033291999250650406,0.0018319999799132347,0.08973000198602676,-1.115054965019226,-9.518050193786621
2210614700,91.4642562866211,35.78607177734375,0.012369999662041664,-0.019471000880002975,-0.008704000152647495,0.06400799751281738,-1.0737789869308472,-9.506684303283691
2210624700,91.47016906738281,35.781494140625,0.01763799972832203,-0.032832998782396317,0.006643000058829784,0.083747997879982,-1.0821540355682373,-9.469594955444336
2210634700,91.46324920654297,35.781494140625,0.021455999463796616,-0.01992899924516678,0.001373999984934926,0.0831499993801117,-1.1060819625854492,-9.52941608428955
2210644700,91.46556091308594,35.781494140625,0.015270999632775784,-0.03466600179672241,-0.0053449999541044235,0.062212999910116196,-1.09471595287323,-9.515657424926758
2210654700,91.46195983886719,35.78607177734375,0.010459999553859234,-0.02466299943625927,-0.0024429999757558107,0.03888300061225891,-1.0905280113220215,-9.501897811889648
2210664700,91.47016906738281,35.781494140625,0.006184000056236982,-0.03138300031423569,0.0009159999899566174,0.07597199827432632,-1.1258230209350586,-9.509077072143555
2210674700,91.46887969970703,35.78607177734375,0.017179999500513077,-0.033291999250650406,0.0028250000905245543,0.07298099994659424,-1.1144570112228394,-9.512665748596191
2210684700,91.46556091308594,35.781494140625,0.01191100012511015,-0.023289000615477562,-0.0024429999757558107,0.07716800272464752,-1.1264209747314453,-9.480362892150879
2210694700,91.47248077392578,35.781494140625,0.016186999157071114,-0.026114000007510185,0.0018319999799132347,0.06101600080728531,-1.0845459699630737,-9.530611991882324
2210704700,91.46887969970703,35.78607177734375,0.010002000257372856,-0.021838000044226646,0.00419900007545948,0.049651000648736954,-1.116250991821289,-9.458827018737793
2210714700,91.46556091308594,35.781494140625,0.010459999553859234,-0.021838000044226646,0.0009159999899566174,0.09451600164175034,-1.06659996509552,-9.507880210876465
2210724700,91.46758270263672,35.7906494140625,0.01244600024074316,-0.028557000681757927,0.004275999963283539,0.09631100296974182,-1.079761028289795,-9.526424407958984
2210734700,91.46656799316406,35.78607177734375,0.012903999537229538,-0.024204999208450317,-0.003894000081345439,0.06819500029087067,-1.0803589820861816,-9.528219223022461
2210744700,91.46527862548828,35.7906494140625,0.012369999662041664,-0.03138300031423569,-0.0029009999707341194,0.06520400196313858,-1.0857429504394531,-9.506684303283691
2210754700,91.46527862548828,35.7906494140625,0.015270999632775784,-0.03420799970626831,-0.0029009999707341194,0.07417699694633484,-1.0917249917984009,-9.53958511352539
2210764700,91.46656799316406,35.78607177734375,0.010537000373005867,-0.019471000880002975,-0.009162000380456448,0.04366900026798248,-1.1102689504623413,-9.483353614807129
2210774700,91.46887969970703,35.78607177734375,0.012369999662041664,-0.030389999970793724,0.003283000085502863,0.09631100296974182,-1.1144570112228394,-9.530014038085938
2210784700,91.46785736083984,35.781494140625,0.014813000336289406,-0.0222960002720356,0.004734000191092491,0.11186400055885315,-1.09471595287323,-9.501299858093262
2210794700,91.46914672851562,35.77691650390625,0.006719000171869993,-0.019471000880002975,0.004734000191092491,0.06460600346326828,-1.1096709966659546,-9.511468887329102
2210804700,91.4642562866211,35.78607177734375,0.009544000029563904,-0.033291999250650406,0.001373999984934926,0.06400799751281738,-1.0869389772415161,-9.533602714538574
2210814700,91.46222686767578,35.77691650390625,0.01763799972832203,-0.0275650005787611,0.004275999963283539,0.050248999148607254,-1.1018940210342407,-9.510272979736328
2210824700,91.46556091308594,35.781494140625,0.021455999463796616,-0.023289000615477562,0.0009159999899566174,0.0628110021352768,-1.0803589820861816,-9.538389205932617
2210834700,91.46887969970703,35.78607177734375,0.023289000615477562,-0.02893899939954281,0.014278000220656395,0.07537300139665604,-1.1246260404586792,-9.544968605041504
2210844700,91.47477722167969,35.781494140625,0.006643000058829784,-0.021302999928593636,-0.0011449999874457717,0.06580200046300888,-1.0875370502471924,-9.482156753540039
2210854700,91.46656799316406,35.78607177734375,0.012827999889850616,-0.018936000764369965,0.0041229999624192715,0.07477500289678574,-1.1096709966659546,-9.506684303283691
2210864700,91.47118377685547,35.78607177734375,0.01336199976503849,-0.03375000134110451,-0.0034360000863671303,0.04905200004577637,-1.0995010137557983,-9.550353050231934
2210874700,91.4642562866211,35.78607177734375,0.003358999965712428,-0.02466299943625927,0.0009159999899566174,0.08853399753570557,-1.050449013710022,-9.482156753540039
2210884700,91.46195983886719,35.78607177734375,0.011452999897301197,-0.025655999779701233,-0.0009919999865815043,0.05922200158238411,-1.0803589820861816,-9.52941608428955
2210894700,91.46914672851562,35.77691650390625,0.009085999801754951,-0.0222960002720356,0.004275999963283539,0.0412760004401207,-1.0438679456710815,-9.474381446838379
2210904700,91.4734878540039,35.78607177734375,0.016186999157071114,-0.02519799955189228,0.006184000056236982,0.11724799871444702,-1.054636001586914,-9.46780014038086
2210914700,91.46556091308594,35.781494140625,0.009544000029563904,-0.03184099867939949,-0.0005339999916031957,0.07298099994659424,-1.0833499431610107,-9.481558799743652
2210924700,91.46887969970703,35.78607177734375,0.014278000220656395,-0.03466600179672241,0.003283000085502863,0.049651000648736954,-1.0755729675292969,-9.501897811889648
2210934700,91.46914672851562,35.77691650390625,0.018631000071763992,-0.026572000235319138,0.007100999820977449,0.013159999623894691,-1.124027967453003,-9.521638870239258
2210944700,91.47219848632812,35.7906494140625,0.01572900079190731,-0.028023000806570053,-0.006260999944061041,0.05982000008225441,-1.0725820064544678,-9.485746383666992
2210954700,91.47248077392578,35.781494140625,0.015270999632775784,-0.0275650005787611,-7.599999662488699e-05,0.022731000557541847,-1.0522429943084717,-9.496514320373535
2210964700,91.46887969970703,35.78607177734375,0.021913999691605568,-0.02275400049984455,0.0009159999899566174,0.06999000161886215,-1.1012959480285645,-9.556933403015137
2210974700,91.46887969970703,35.78607177734375,0.020462999120354652,-0.026572000235319138,0.007023999933153391,0.04007900133728981,-1.0570290088653564,-9.534798622131348
2210984700,91.46656799316406,35.78607177734375,0.021379999816417694,-0.024204999208450317,-0.009696999564766884,0.037087999284267426,-1.1401790380477905,-9.57368278503418
2210994700,91.46887969970703,35.78607177734375,0.0076350001618266106,-0.024204999208450317,-0.0015269999857991934,0.11006899923086166,-1.0791620016098022,-9.525228500366211
2211004700,91.46785736083984,35.781494140625,0.01572900079190731,-0.017103999853134155,-0.0009919999865815043,0.10528399795293808,-1.1144570112228394,-9.504888534545898
2211014700,91.47118377685547,35.78607177734375,0.010994999669492245,-0.02519799955189228,0.00419900007545948,0.06999000161886215,-1.1246260404586792,-9.507880210876465
2211024700,91.46453857421875,35.77691650390625,0.016186999157071114,-0.025655999779701233,0.0023670000955462456,0.06759700179100037,-1.1012959480285645,-9.494720458984375
2211034700,91.46685028076172,35.77691650390625,0.011377000249922276,-0.02993199974298477,0.0055740000680089,0.05862399935722351,-1.0941179990768433,-9.52941608428955
2211044700,91.46656799316406,35.78607177734375,0.0061079999431967735,-0.03138300031423569,-0.009696999564766884,0.07298099994659424,-1.1318049430847168,-9.494720458984375
2211054700,91.46758270263672,35.7906494140625,0.02000500075519085,-0.03229900076985359,0.001373999984934926,0.06101600080728531,-1.0995010137557983,-9.47378158569336
2211064700,91.46656799316406,35.78607177734375,0.013819999992847443,-0.017562000080943108,0.012369999662041664,0.07896299660205841,-1.0833499431610107,-9.501299858093262
2211074700,91.46685028076172,35.77691650390625,0.016645999625325203,-0.023747000843286514,0.0028250000905245543,0.06819500029087067,-1.1126619577407837,-9.517451286315918
2211084700,91.47321319580078,35.79522705078125,0.008551999926567078,-0.026572000235319138,0.010919000022113323,0.09451600164175034,-1.0929210186004639,-9.525228500366211
2211094700,91.46758270263672,35.7906494140625,0.012292999774217606,-0.023289000615477562,-0.0068720001727342606,0.09331999719142914,-1.0941179990768433,-9.497711181640625
2211104700,91.47016906738281,35.781494140625,0.015194999985396862,-0.01992899924516678,0.0022140000946819782,0.09690900146961212,-1.1144570112228394,-9.486345291137695
2211114700,91.47016906738281,35.781494140625,0.01809599995613098,-0.024739999324083328,-0.0053449999541044235,0.05982000008225441,-1.0468590259552002,-9.485148429870605
2211124700,91.46887969970703,35.78607177734375,0.017179999500513077,-0.02275400049984455,0.006643000058829784,0.07238200306892395,-1.1054840087890625,-9.509675025939941
2211134700,91.47016906738281,35.781494140625,0.01763799972832203,-0.03138300031423569,-0.014888999983668327,0.06580200046300888,-1.1569290161132812,-9.498907089233398
2211144700,91.46988677978516,35.7906494140625,0.016721999272704124,-0.030923999845981598,-0.005803000181913376,0.11724799871444702,-1.1114660501480103,-9.513861656188965
2211154700,91.46296691894531,35.7906494140625,0.014813000336289406,-0.01992899924516678,0.0038169999606907368,0.07656999677419662,-1.0941179990768433,-9.504290580749512
2211164700,91.46887969970703,35.78607177734375,0.014813000336289406,-0.030923999845981598,-0.0009919999865815043,0.06639999896287918,-1.0875370502471924,-9.510272979736328
2211174700,91.46324920654297,35.781494140625,0.014201999641954899,-0.024204999208450317,0.00992599967867136,0.06999000161886215,-1.1084749698638916,-9.509077072143555
2211184700,91.47118377685547,35.78607177734375,0.016110999509692192,-0.0275650005787611,0.003664999967440963,0.024526000022888184,-1.0743770599365234,-9.518648147583008
2211194700,91.47016906738281,35.781494140625,0.021455999463796616,-0.026572000235319138,0.0009159999899566174,0.06639999896287918,-1.0851449966430664,-9.500102996826172
2211204700,91.4642562866211,35.78607177734375,0.018631000071763992,-0.030923999845981598,0.0004579999949783087,0.08614099770784378,-1.0845459699630737,-9.485148429870605
2211214700,91.47248077392578,35.781494140625,0.007559000048786402,-0.01802000030875206,-0.0044280001893639565,0.0628110021352768,-1.0971089601516724,-9.530611991882324
2211224700,91.47219848632812,35.7906494140625,0.01565299928188324,-0.02466299943625927,-0.002061000093817711,0.07716800272464752,-1.104287028312683,-9.494720458984375
2211234700,91.47248077392578,35.781494140625,0.02038699947297573,-0.02703000046312809,0.000838999985717237,0.07537300139665604,-1.1264209747314453,-9.486943244934082
2211244700,91.47248077392578,35.781494140625,0.020921999588608742,-0.0275650005787611,0.011758999899029732,0.07118599861860275,-1.1036889553070068,-9.528817176818848
2211254700,91.46556091308594,35.781494140625,0.016645999625325203,-0.028023000806570053,0.003283000085502863,0.07357899844646454,-1.082751989364624,-9.499505043029785
2211264700,91.46785736083984,35.781494140625,0.009544000029563904,-0.02519799955189228,0.0022899999748915434,0.08673900365829468,-1.082751989364624,-9.479166030883789
2211274700,91.46556091308594,35.781494140625,0.014278000220656395,-0.0275650005787611,0.01336199976503849,0.043069999665021896,-1.1437690258026123,-9.537192344665527
2211284700,91.47248077392578,35.781494140625,0.01763799972832203,-0.02519799955189228,0.007100999820977449,0.035891998559236526,-1.1318049430847168,-9.451648712158203
2211294700,91.47118377685547,35.78607177734375,0.025731999427080154,-0.02947399951517582,0.010919000022113323,0.09152500331401825,-1.0995010137557983,-9.486943244934082
2211304700,91.47248077392578,35.781494140625,0.004275999963283539,-0.024204999208450317,-0.006260999944061041,0.0843459963798523,-1.0977070331573486,-9.528817176818848
2211314700,91.46556091308594,35.781494140625,0.008627999573946,-0.0275650005787611,-0.003894000081345439,0.10887300223112106,-1.1156530380249023,-9.496514320373535
2211324700,91.46887969970703,35.78607177734375,0.014813000336289406,-0.02275400049984455,-0.0024429999757558107,0.05084700137376785,-1.1365900039672852,-9.507282257080078
2211334700,91.46914672851562,35.77691650390625,0.012369999662041664,-0.025655999779701233,-0.0029009999707341194,0.06460600346326828,-1.0887340307235718,-9.491129875183105
2211344700,91.47118377685547,35.78607177734375,0.019089000299572945,-0.02947399951517582,0.004275999963283539,0.13220299780368805,-1.0821540355682373,-9.524629592895508
2211354700,91.4642562866211,35.78607177734375,0.0076350001618266106,-0.029015999287366867,0.004275999963283539,0.09511400014162064,-1.0791620016098022,-9.501897811889648
2211364700,91.46785736083984,35.781494140625,0.01572900079190731,-0.021838000044226646,0.0028250000905245543,0.07118599861860275,-1.098902940750122,-9.514459609985352
2211374700,91.46324920654297,35.781494140625,0.007176999934017658,-0.02519799955189228,0.023365000262856483,0.12562300264835358,-1.1036889553070068,-9.466604232788086
2211384700,91.47118377685547,35.78607177734375,0.01473699975758791,-0.026114000007510185,-0.0111480001360178,0.07956100255250931,-1.1090730428695679,-9.495916366577148
2211394700,91.47477722167969,35.781494140625,0.012292999774217606,-0.030848000198602676,0.006031999830156565,0.08135499805212021,-1.1006979942321777,-9.510870933532715
2211404700,91.47248077392578,35.781494140625,0.014278000220656395,-0.03138300031423569,0.012827999889850616,0.07537300139665604,-1.0953140258789062,-9.490531921386719
2211414700,91.47118377685547,35.78607177734375,0.015270999632775784,-0.021838000044226646,0.0018319999799132347,0.021534999832510948,-1.1258230209350586,-9.481558799743652
2211424700,91.4642562866211,35.78607177734375,0.016110999509692192,-0.03229900076985359,0.004656999837607145,0.15613099932670593,-1.1318049430847168,-9.507282257080078
2211434700,91.46556091308594,35.781494140625,0.014201999641954899,-0.02993199974298477,0.001297999988310039,0.025124000385403633,-1.0677969455718994,-9.476773262023926
2211444700,91.47248077392578,35.781494140625,0.012369999662041664,-0.029015999287366867,0.008093000389635563,0.041873998939991,-1.1347960233688354,-9.53659439086914
2211454700,91.46324920654297,35.781494140625,0.018554000183939934,-0.021838000044226646,-0.001984999980777502,0.09870299696922302,-1.1210370063781738,-9.504888534545898
2211464700,91.46887969970703,35.78607177734375,0.016110999509692192,-0.033291999250650406,0.0041229999624192715,0.030508000403642654,-1.115054965019226,-9.480960845947266
2211474700,91.4714584350586,35.77691650390625,0.015194999985396862,-0.02466299943625927,-0.007788000162690878,0.1609169989824295,-1.1288139820098877,-9.46062183380127
2211484700,91.47219848632812,35.7906494140625,0.01244600024074316,-0.024204999208450317,0.0037410000804811716,0.11186400055885315,-1.0325020551681519,-9.4660062789917
2211494700,91.46453857421875,35.77691650390625,0.014278000220656395,-0.0222960002720356,-0.003894000081345439,-0.0059819999150931835,-1.1419739723205566,-9.52941608428955
2211504700,91.46556091308594,35.781494140625,0.01992899924516678,-0.020844999700784683,0.001297999988310039,0.07477500289678574,-1.120439052581787,-9.497711181640625
2211514700,91.47248077392578,35.781494140625,0.014201999641954899,-0.02703000046312809,-0.01259899977594614,0.06580200046300888,-1.0941179990768433,-9.538389205932617
2211524700,91.46195983886719,35.78607177734375,0.01191100012511015,-0.021838000044226646,-0.0009919999865815043,0.0825520008802414,-1.0869389772415161,-9.489933967590332
2211534700,91.47219848632812,35.7906494140625,0.012369999662041664,-0.0222960002720356,-0.008704000152647495,0.042472001165151596,-1.1467599868774414,-9.593423843383789
2211544700,91.46453857421875,35.77691650390625,0.01763799972832203,-0.0222960002720356,0.001373999984934926,0.083747997879982,-1.0767699480056763,-9.436694145202637
2211554700,91.46785736083984,35.781494140625,0.019089000299572945,-0.0222960002720356,-0.003894000081345439,0.09511400014162064,-1.1246260404586792,-9.580263137817383
2211564700,91.46324920654297,35.781494140625,0.012369999662041664,-0.026572000235319138,-0.008704000152647495,0.08733800053596497,-1.053439974784851,-9.474381446838379
2211574700,91.46785736083984,35.781494140625,0.014813000336289406,-0.02993199974298477,-0.0005339999916031957,0.06999000161886215,-1.1078760623931885,-9.527023315429688
2211584700,91.46887969970703,35.78607177734375,0.025273999199271202,-0.01802000030875206,-0.008170000277459621,0.056829001754522324,-1.100100040435791,-9.470192909240723
2211594700,91.47248077392578,35.781494140625,0.013819999992847443,-0.023289000615477562,0.007100999820977449,0.07477500289678574,-1.128214955329895,-9.480960845947266
2211604700,91.46887969970703,35.78607177734375,0.020462999120354652,-0.026114000007510185,0.0009159999899566174,0.0843459963798523,-1.0995010137557983,-9.498309135437012
2211614700,91.46988677978516,35.7906494140625,0.014813000336289406,-0.030465999618172646,0.0009159999899566174,0.08075699955224991,-1.0815550088882446,-9.489933967590332
2211624700,91.47118377685547,35.78607177734375,0.021455999463796616,-0.028480999171733856,-0.0005339999916031957,0.05324000120162964,-1.0953140258789062,-9.521040916442871
2211634700,91.46556091308594,35.781494140625,0.01244600024074316,-0.030389999970793724,0.006643000058829784,0.06759700179100037,-1.0887340307235718,-9.467202186584473
2211644700,91.47551727294922,35.79522705078125,0.012903999537229538,-0.026572000235319138,0.003283000085502863,0.0209369994699955,-1.0941179990768433,-9.498907089233398
2211654700,91.46988677978516,35.7906494140625,0.013819999992847443,-0.034742001444101334,-0.004809999838471413,0.1016940027475357,-1.1126619577407837,-9.474979400634766
2211664700,91.46685028076172,35.77691650390625,0.011452999897301197,-0.02993199974298477,-0.001984999980777502,0.06580200046300888,-1.1096709966659546,-9.520442008972168
2211674700,91.46453857421875,35.77691650390625,0.001449999981559813,-0.02519799955189228,0.0018319999799132347,0.04426699876785278,-1.1228320598602295,-9.511468887329102
2211684700,91.4734878540039,35.78607177734375,0.012903999537229538,-0.02710700035095215,-0.0029009999707341194,0.08015900105237961,-1.1060819625854492,-9.519844055175781
2211694700,91.47118377685547,35.78607177734375,0.020997999235987663,-0.0275650005787611,0.004734000191092491,0.10648000240325928,-1.124027967453003,-9.510272979736328
2211704700,91.47606658935547,35.77691650390625,0.009085999801754951,-0.024204999208450317,-0.008170000277459621,0.09092699736356735,-1.0965100526809692,-9.521638870239258
2211714700,91.46914672851562,35.77691650390625,0.014813000336289406,-0.02519799955189228,-0.0005339999916031957,0.0831499993801117,-1.079761028289795,-9.510870933532715
2211724700,91.4609375,35.781494140625,0.014278000220656395,-0.026114000007510185,-0.0034360000863671303,0.10767699778079987,-1.1706880331039429,-9.519246101379395
2211734700,91.4734878540039,35.78607177734375,0.02290700003504753,-0.0275650005787611,0.0037410000804811716,0.05144499987363815,-1.1186439990997314,-9.497711181640625
2211744700,91.46859741210938,35.79522705078125,0.005268000066280365,-0.030389999970793724,-0.008170000277459621,0.12323000282049179,-1.116250991821289,-9.515058517456055
2211754700,91.4714584350586,35.77691650390625,0.012521999888122082,-0.02993199974298477,0.0,0.0843459963798523,-1.104287028312683,-9.537192344665527
2211764700,91.46887969970703,35.78607177734375,0.010613000020384789,-0.0275650005787611,-0.008093000389635563,0.08973000198602676,-1.161715030670166,-9.543771743774414
2211774700,91.47118377685547,35.78607177734375,0.021379999816417694,-0.0222960002720356,-0.013515000231564045,0.036490000784397125,-1.1347960233688354,-9.460023880004883
2211784700,91.47016906738281,35.781494140625,0.00992599967867136,-0.0275650005787611,0.00076299998909235,0.1028909981250763,-1.1012959480285645,-9.535398483276367
2211794700,91.46914672851562,35.77691650390625,0.012369999662041664,-0.02710700035095215,-0.001984999980777502,0.07238200306892395,-1.1389830112457275,-9.522834777832031
2211804700,91.46685028076172,35.77691650390625,0.010537000373005867,-0.01992899924516678,0.0003809999907389283,0.0628110021352768,-1.1078760623931885,-9.495318412780762
2211814700,91.46453857421875,35.77691650390625,0.010459999553859234,-0.030465999618172646,-0.006719000171869993,0.0819540023803711,-1.0648059844970703,-9.490531921386719
2211824700,91.46685028076172,35.77691650390625,0.009085999801754951,-0.026572000235319138,-7.599999662488699e-05,0.1028909981250763,-1.0642069578170776,-9.53958511352539
2211834700,91.47016906738281,35.781494140625,0.009544000029563904,-0.02519799955189228,0.001373999984934926,0.04426699876785278,-1.0983049869537354,-9.512665748596191
2211844700,91.46887969970703,35.78607177734375,0.007176999934017658,-0.024204999208450317,0.0018319999799132347,0.11784599721431732,-1.128214955329895,-9.508478164672852
2211854700,91.47016906738281,35.781494140625,0.01565299928188324,-0.02275400049984455,0.00939099956303835,0.11305999755859375,-1.0612159967422485,-9.45942497253418
2211864700,91.46988677978516,35.7906494140625,0.0222960002720356,-0.035200998187065125,0.007482999935746193,0.07058800011873245,-1.1246260404586792,-9.463014602661133
2211874700,91.46785736083984,35.781494140625,0.011377000249922276,-0.02466299943625927,-0.007788000162690878,0.08554299920797348,-1.1491529941558838,-9.461817741394043
2211884700,91.47016906738281,35.781494140625,0.015194999985396862,-0.023747000843286514,0.010842000134289265,0.09810499846935272,-1.0857429504394531,-9.525228500366211
2211894700,91.46685028076172,35.77691650390625,0.015194999985396862,-0.02466299943625927,-0.006413999944925308,0.056829001754522324,-1.0875370502471924,-9.501897811889648
2211904700,91.46656799316406,35.78607177734375,0.01992899924516678,-0.028023000806570053,-0.009696999564766884,0.04426699876785278,-1.0995010137557983,-9.515058517456055
2211914700,91.46582794189453,35.7723388671875,0.025655999779701233,-0.02893899939954281,0.00076299998909235,0.083747997879982,-1.1473579406738281,-9.45464038848877
2211924700,91.46685028076172,35.77691650390625,0.017103999853134155,-0.02947399951517582,-0.0006099999882280827,0.09989999979734421,-1.1222330331802368,-9.488738059997559
2211934700,91.4734878540039,35.78607177734375,0.011377000249922276,-0.03375000134110451,0.004656999837607145,0.05264199897646904,-1.054636001586914,-9.498907089233398
2211944700,91.46758270263672,35.7906494140625,0.019013000652194023,-0.028480999171733856,0.0022140000946819782,0.029311999678611755,-1.1078760623931885,-9.505487442016602
2211954700,91.47016906738281,35.781494140625,0.013744000345468521,-0.02710700035095215,-0.00496299983933568,0.05383799970149994,-1.1353939771652222,-9.533602714538574
2211964700,91.46556091308594,35.781494140625,0.017103999853134155,-0.02466299943625927,0.008475000038743019,0.07776600122451782,-1.1306079626083374,-9.474381446838379
2211974700,91.46887969970703,35.78607177734375,0.013744000345468521,-0.02466299943625927,0.004656999837607145,0.06939099729061127,-1.1138579845428467,-9.474381446838379
2211984700,91.46556091308594,35.781494140625,0.013744000345468521,-0.026572000235319138,0.010842000134289265,0.06759700179100037,-1.0875370502471924,-9.57248592376709
2211994700,91.46914672851562,35.77691650390625,0.011377000249922276,-0.03375000134110451,0.003664999967440963,0.035294000059366226,-1.0576269626617432,-9.549156188964844
2212004700,91.47016906738281,35.781494140625,0.01763799972832203,-0.02519799955189228,-0.006260999944061041,0.057427000254392624,-1.1844470500946045,-9.492924690246582
2212014700,91.46887969970703,35.78607177734375,0.01336199976503849,-0.02993199974298477,0.00572599982842803,0.06580200046300888,-1.1611169576644897,-9.480960845947266
2212024700,91.46453857421875,35.77691650390625,0.0222960002720356,-0.026572000235319138,-0.0016029999824240804,0.08973000198602676,-1.046260952949524,-9.531807899475098
2212034700,91.47016906738281,35.781494140625,0.013286000117659569,-0.02710700035095215,-0.0006099999882280827,0.05862399935722351,-1.0725820064544678,-9.552146911621094
2212044700,91.46887969970703,35.78607177734375,0.010994999669492245,-0.0275650005787611,-0.004809999838471413,0.049651000648736954,-1.1341969966888428,-9.503692626953125
2212054700,91.46656799316406,35.78607177734375,0.010537000373005867,-0.024739999324083328,0.0028250000905245543,0.0843459963798523,-1.082751989364624,-9.537192344665527
2212064700,91.46195983886719,35.78607177734375,0.01336199976503849,-0.025655999779701233,-0.006260999944061041,0.05264199897646904,-1.1246260404586792,-9.425328254699707
2212074700,91.46914672851562,35.77691650390625,0.015270999632775784,-0.026114000007510185,-0.0024429999757558107,0.09750699996948242,-1.0983049869537354,-9.544370651245117
2212084700,91.46887969970703,35.78607177734375,0.021379999816417694,-0.029015999287366867,-0.005421000067144632,0.07477500289678574,-1.0881359577178955,-9.540781021118164
2212094700,91.47118377685547,35.78607177734375,0.019013000652194023,-0.026114000007510185,-0.00015199999324977398,0.062212999910116196,-1.1383850574493408,-9.479166030883789
2212104700,91.47016906738281,35.781494140625,0.014201999641954899,-0.02466299943625927,0.005115000065416098,0.08554299920797348,-1.1300100088119507,-9.486943244934082
2212114700,91.47248077392578,35.781494140625,0.013286000117659569,-0.017562000080943108,-0.00496299983933568,0.043069999665021896,-1.1198400259017944,-9.501897811889648
2212124700,91.46887969970703,35.78607177734375,0.013286000117659569,-0.02703000046312809,0.002747999969869852,0.035891998559236526,-1.1341969966888428,-9.512665748596191
2212134700,91.46785736083984,35.781494140625,0.017103999853134155,-0.020844999700784683,-0.0025190000887960196,0.061615001410245895,-1.0875370502471924,-9.486345291137695
2212144700,91.46324920654297,35.781494140625,0.012369999662041664,-0.021838000044226646,-0.00015199999324977398,0.09571199864149094,-1.1210370063781738,-9.54975414276123
2212154700,91.47477722167969,35.781494140625,0.011377000249922276,-0.023212000727653503,0.007023999933153391,0.11545299738645554,-1.1180460453033447,-9.528817176818848
2212164700,91.47016906738281,35.781494140625,0.009468000382184982,-0.028480999171733856,0.00992599967867136,0.07058800011873245,-1.1276170015335083,-9.533004760742188
2212174700,91.46556091308594,35.781494140625,0.012292999774217606,-0.024204999208450317,-0.009239000268280506,0.07537300139665604,-1.1024930477142334,-9.475577354431152
2212184700,91.47450256347656,35.7906494140625,0.015118000097572803,-0.0275650005787611,0.008856999687850475,0.04007900133728981,-1.1198400259017944,-9.512067794799805
2212194700,91.47606658935547,35.77691650390625,0.016568999737501144,-0.023212000727653503,-0.006947999820113182,0.058024998754262924,-1.1114660501480103,-9.519844055175781
2212204700,91.46556091308594,35.781494140625,0.009544000029563904,-0.020844999700784683,-0.0009919999865815043,0.07537300139665604,-1.1114660501480103,-9.490531921386719
2212214700,91.4586410522461,35.781494140625,0.012369999662041664,-0.02710700035095215,0.011452999897301197,0.04067699983716011,-1.125223994255066,-9.525825500488281
2212224700,91.47016906738281,35.781494140625,0.008016999810934067,-0.017026999965310097,-0.0030539999715983868,0.07537300139665604,-1.0983049869537354,-9.487541198730469
2212234700,91.46785736083984,35.781494140625,0.008016999810934067,-0.02947399951517582,-0.005421000067144632,0.055633001029491425,-1.1258230209350586,-9.546165466308594
2212244700,91.46453857421875,35.77691650390625,0.014201999641954899,-0.02466299943625927,-0.007788000162690878,0.07896299660205841,-1.1306079626083374,-9.541977882385254
2212254700,91.46887969970703,35.78607177734375,0.016110999509692192,-0.035124000161886215,-0.0006099999882280827,0.11844400316476822,-1.1288139820098877,-9.442675590515137
2212264700,91.46758270263672,35.7906494140625,0.016645999625325203,-0.03229900076985359,-0.005803000181913376,0.10767699778079987,-1.0737789869308472,-9.443273544311523
2212274700,91.46656799316406,35.78607177734375,0.01191100012511015,-0.019471000880002975,0.0023670000955462456,0.07357899844646454,-1.0965100526809692,-9.497112274169922
2212284700,91.47118377685547,35.78607177734375,0.016110999509692192,-0.026114000007510185,-0.002061000093817711,-0.03230300173163414,-1.1485539674758911,-9.599406242370605
2212294700,91.45530700683594,35.77691650390625,0.013744000345468521,-0.023212000727653503,0.0061079999431967735,0.1028909981250763,-1.09471595287323,-9.480960845947266
2212304700,91.47248077392578,35.781494140625,0.016110999509692192,-0.026572000235319138,-0.003969999961555004,0.11365900188684464,-1.1198400259017944,-9.543771743774414
2212314700,91.4642562866211,35.78607177734375,0.011834999546408653,-0.024204999208450317,0.005115000065416098,0.11006899923086166,-1.0803589820861816,-9.451050758361816
2212324700,91.46914672851562,35.77691650390625,0.0275650005787611,-0.018478000536561012,-0.0016029999824240804,0.05264199897646904,-1.0689929723739624,-9.522236824035645
2212334700,91.46556091308594,35.781494140625,0.007100999820977449,-0.028023000806570053,0.00030499999411404133,0.0634090006351471,-1.051645040512085,-9.485148429870605
2212344700,91.46785736083984,35.781494140625,0.00901000015437603,-0.024204999208450317,0.003206999972462654,0.08793599903583527,-1.1018940210342407,-9.483951568603516
2212354700,91.46887969970703,35.78607177734375,0.017562000080943108,-0.02703000046312809,-0.0006099999882280827,0.1016940027475357,-1.0785640478134155,-9.45763111114502
2212364700,91.46785736083984,35.781494140625,0.00901000015437603,-0.023289000615477562,0.007023999933153391,0.07776600122451782,-1.095911979675293,-9.559326171875
2212374700,91.46656799316406,35.78607177734375,0.017562000080943108,-0.02466299943625927,0.001297999988310039,0.0819540023803711,-1.1288139820098877,-9.54556655883789
2212384700,91.47016906738281,35.781494140625,0.014278000220656395,-0.03184099867939949,0.005115000065416098,0.09092699736356735,-1.0845459699630737,-9.493522644042969
2212394700,91.46887969970703,35.78607177734375,0.011834999546408653,-0.030848000198602676,0.00030499999411404133,0.04665999859571457,-1.1108670234680176,-9.498309135437012
2212404700,91.46914672851562,35.77691650390625,0.016645999625325203,-0.03229900076985359,0.010842000134289265,0.10827499628067017,-1.0953140258789062,-9.474979400634766
2212414700,91.46785736083984,35.781494140625,0.013286000117659569,-0.033291999250650406,-0.005878999829292297,0.0831499993801117,-1.1048849821090698,-9.537790298461914
2212424700,91.46556091308594,35.781494140625,0.011377000249922276,-0.02466299943625927,0.00992599967867136,0.08554299920797348,-1.080957055091858,-9.491728782653809
2212434700,91.46887969970703,35.78607177734375,0.017562000080943108,-0.02466299943625927,-0.0010689999908208847,0.11186400055885315,-1.1126619577407837,-9.501299858093262
2212444700,91.46656799316406,35.78607177734375,0.012827999889850616,-0.02275400049984455,-0.002595999976620078,0.0831499993801117,-1.079761028289795,-9.506085395812988
2212454700,91.46685028076172,35.77691650390625,0.011834999546408653,-0.03229900076985359,0.008016999810934067,0.06999000161886215,-1.1078760623931885,-9.495916366577148
2212464700,91.4642562866211,35.78607177734375,0.017562000080943108,-0.035659000277519226,-0.0016029999824240804,0.035294000059366226,-1.053439974784851,-9.530014038085938
2212474700,91.47016906738281,35.781494140625,0.019471000880002975,-0.02947399951517582,0.007023999933153391,0.057427000254392624,-1.1330009698867798,-9.543771743774414
2212484700,91.46656799316406,35.78607177734375,0.007559000048786402,-0.0222960002720356,0.0017559999832883477,0.09690900146961212,-1.1222330331802368,-9.502495765686035
2212494700,91.46785736083984,35.781494140625,0.016568999737501144,-0.028023000806570053,-0.00496299983933568,0.07537300139665604,-1.0881359577178955,-9.521638870239258
2212504700,91.47118377685547,35.78607177734375,0.012827999889850616,-0.032756999135017395,0.000838999985717237,0.06639999896287918,-1.083948016166687,-9.497112274169922
2212514700,91.46785736083984,35.781494140625,0.014201999641954899,-0.023747000843286514,-0.005878999829292297,0.08135499805212021,-1.1168489456176758,-9.528817176818848
2212524700,91.46887969970703,35.78607177734375,0.017562000080943108,-0.032756999135017395,-0.0011449999874457717,0.06580200046300888,-1.0983049869537354,-9.530014038085938
2212534700,91.47248077392578,35.781494140625,0.011834999546408653,-0.028023000806570053,0.0017559999832883477,0.11246199905872345,-1.0582250356674194,-9.522834777832031
2212544700,91.47016906738281,35.781494140625,0.02275400049984455,-0.02893899939954281,0.006566000171005726,0.09930200129747391,-1.0833499431610107,-9.548558235168457
2212554700,91.47450256347656,35.7906494140625,0.00992599967867136,-0.026114000007510185,0.0017559999832883477,0.06819500029087067,-1.0935189723968506,-9.509077072143555
2212564700,91.47118377685547,35.78607177734375,0.00901000015437603,-0.028480999171733856,-0.006413999944925308,0.11186400055885315,-1.1198400259017944,-9.505487442016602
2212575700,91.47118377685547,35.78607177734375,0.007559000048786402,-0.02993199974298477,0.001297999988310039,0.0819540023803711,-1.0660020112991333,-9.488738059997559
2212585700,91.47579956054688,35.78607177734375,0.008551999926567078,-0.028480999171733856,0.00030499999411404133,0.08494500070810318,-1.1288139820098877,-9.515657424926758
2212595700,91.47477722167969,35.781494140625,0.014201999641954899,-0.028023000806570053,0.003206999972462654,0.055633001029491425,-1.1228320598602295,-9.525228500366211
2212605700,91.46685028076172,35.77691650390625,0.011834999546408653,-0.023289000615477562,0.003206999972462654,0.07238200306892395,-1.09471595287323,-9.513263702392578
2212615700,91.46656799316406,35.78607177734375,0.008016999810934067,-0.023747000843286514,-0.0035119999665766954,0.09152500331401825,-1.1192419528961182,-9.544968605041504
2212625700,91.47016906738281,35.781494140625,0.008475000038743019,-0.025120999664068222,0.0012209999840706587,0.08075699955224991,-1.0941179990768433,-9.54257583618164
2212635700,91.46656799316406,35.78607177734375,0.014125999994575977,-0.03229900076985359,0.002595999976620078,0.09272100031375885,-1.104287028312683,-9.522236824035645
2212645700,91.47016906738281,35.781494140625,0.010459999553859234,-0.02947399951517582,0.00030499999411404133,0.083747997879982,-1.083948016166687,-9.535996437072754
2212655700,91.47016906738281,35.781494140625,0.010383999906480312,-0.03375000134110451,-0.0006099999882280827,0.06819500029087067,-1.0815550088882446,-9.52941608428955
2212665700,91.46324920654297,35.781494140625,0.007100999820977449,-0.0275650005787611,0.024281000718474388,0.0825520008802414,-1.1449649333953857,-9.507880210876465
2212675700,91.47016906738281,35.781494140625,0.02275400049984455,-0.03375000134110451,0.02519799955189228,0.08913200348615646,-1.0642069578170776,-9.501299858093262
2212685700,91.47477722167969,35.781494140625,0.0222960002720356,-0.018936000764369965,0.017562000080943108,0.12323000282049179,-1.0917249917984009,-9.45643424987793
2212695800,91.46887969970703,35.78607177734375,0.0056500001810491085,-0.03657500073313713,0.014201999641954899,0.041873998939991,-1.1300100088119507,-9.537790298461914
2212705700,91.46988677978516,35.7906494140625,0.005115000065416098,-0.01748500019311905,0.004505000077188015,0.08913200348615646,-1.1096709966659546,-9.424131393432617
2212715700,91.46556091308594,35.781494140625,0.006031999830156565,-0.03558199852705002,0.020844999700784683,0.05922200158238411,-1.1383850574493408,-9.56770133972168
2212725700,91.46685028076172,35.77691650390625,0.00992599967867136,-0.030389999970793724,0.007482999935746193,0.06101600080728531,-1.0821540355682373,-9.497112274169922
2212735700,91.46353149414062,35.7723388671875,0.023289000615477562,-0.03611699864268303,0.019013000652194023,0.07417699694633484,-1.128214955329895,-9.492924690246582
2212745700,91.46222686767578,35.77691650390625,0.01794400066137314,-0.03420799970626831,0.01458400022238493,0.12741699814796448,-1.0642069578170776,-9.500701904296875
2212755700,91.46556091308594,35.781494140625,0.020844999700784683,-0.02275400049984455,0.013667999766767025,0.049651000648736954,-1.0965100526809692,-9.571290016174316
2212765700,91.4714584350586,35.77691650390625,0.026496000587940216,-0.028480999171733856,0.013132999651134014,0.04426699876785278,-1.1198400259017944,-9.483951568603516
2212775700,91.47016906738281,35.781494140625,0.018478000536561012,-0.028023000806570053,0.006947999820113182,0.10947100073099136,-1.0660020112991333,-9.485148429870605
2212785700,91.46887969970703,35.78607177734375,0.01603499986231327,-0.026572000235319138,0.0031300000846385956,0.04665999859571457,-1.079761028289795,-9.543771743774414
2212795700,91.4714584350586,35.77691650390625,0.019852999597787857,-0.024204999208450317,-0.0002280000044265762,0.07298099994659424,-1.1180460453033447,-9.547362327575684
2212805700,91.46556091308594,35.781494140625,0.022220000624656677,-0.0222960002720356,-0.009850000031292439,0.13878299295902252,-1.055832028388977,-9.441478729248047
2212815700,91.4714584350586,35.77691650390625,0.02275400049984455,-0.028480999171733856,-0.01458400022238493,0.07058800011873245,-1.0498499870300293,-9.54796028137207
2212825700,91.46887969970703,35.78607177734375,0.01802000030875206,-0.02703000046312809,0.02519799955189228,0.023927999660372734,-1.1587239503860474,-9.598807334899902
2212835700,91.46556091308594,35.781494140625,0.01802000030875206,-0.030848000198602676,-0.012140000239014626,0.13040800392627716,-1.1312060356140137,-9.473183631896973
2212845700,91.47016906738281,35.781494140625,0.011377000249922276,-0.03375000134110451,0.019471000880002975,0.12323000282049179,-1.0749750137329102,-9.525228500366211
2212855700,91.47219848632812,35.7906494140625,0.010459999553859234,-0.030848000198602676,-0.0030539999715983868,0.07118599861860275,-1.0612159967422485,-9.551548957824707
2212865700,91.47118377685547,35.78607177734375,0.01840200088918209,-0.026572000235319138,0.02939699962735176,0.11724799871444702,-1.11326003074646,-9.488139152526855
2212875700,91.46556091308594,35.781494140625,0.012217000126838684,-0.037491001188755035,-0.0021379999816417694,0.08913200348615646,-1.071984052658081,-9.479166030883789
2212885700,91.46656799316406,35.78607177734375,0.0056500001810491085,-0.03466600179672241,0.040010999888181686,0.0831499993801117,-1.083948016166687,-9.524031639099121
2212895700,91.46656799316406,35.78607177734375,0.02237199991941452,-0.033291999250650406,0.014201999641954899,0.0819540023803711,-1.1180460453033447,-9.534200668334961
2212905700,91.4734878540039,35.78607177734375,0.008551999926567078,-0.030848000198602676,0.012292999774217606,0.06580200046300888,-1.0749750137329102,-9.513861656188965
2212915700,91.47118377685547,35.78607177734375,0.017103999853134155,-0.03375000134110451,0.0275650005787611,0.07118599861860275,-1.0953140258789062,-9.537790298461914
2212925700,91.46222686767578,35.77691650390625,0.015118000097572803,-0.032756999135017395,-0.0012209999840706587,0.10827499628067017,-1.095911979675293,-9.508478164672852
2212935700,91.47118377685547,35.78607177734375,0.019852999597787857,-0.02993199974298477,0.005954999942332506,0.04007900133728981,-1.0899300575256348,-9.54796028137207
2212945700,91.47118377685547,35.78607177734375,0.0009159999899566174,-0.026114000007510185,0.016568999737501144,0.06460600346326828,-1.1024930477142334,-9.498907089233398
2212955700,91.46785736083984,35.781494140625,0.012751000002026558,-0.018478000536561012,-0.00496299983933568,0.09930200129747391,-1.0576269626617432,-9.504290580749512
2212965700,91.4714584350586,35.77691650390625,0.021761000156402588,-0.02038699947297573,-0.0035880000796169043,0.057427000254392624,-1.0911270380020142,-9.522236824035645
2212975700,91.47118377685547,35.78607177734375,-0.014888999983668327,-0.02939699962735176,0.008321999572217464,0.0628110021352768,-1.1234300136566162,-9.505487442016602
2212985700,91.4642562866211,35.78607177734375,0.007023999933153391,-0.025655999779701233,-0.018936000764369965,0.09152500331401825,-1.083948016166687,-9.475577354431152
2212995700,91.47016906738281,35.781494140625,0.0004579999949783087,-0.03184099867939949,0.01802000030875206,0.023927999660372734,-1.0875370502471924,-9.519844055175781
2213005700,91.46887969970703,35.78607177734375,0.011377000249922276,-0.025655999779701233,0.0055740000680089,0.03409700095653534,-1.1126619577407837,-9.485148429870605
2213015700,91.46556091308594,35.781494140625,0.01320900022983551,-0.026038000360131264,0.01030800025910139,0.09152500331401825,-1.0971089601516724,-9.511468887329102
2213025700,91.4734878540039,35.78607177734375,0.01840200088918209,-0.028480999171733856,0.00977300014346838,0.12921200692653656,-1.0923229455947876,-9.45942497253418
2213035700,91.4734878540039,35.78607177734375,0.00901000015437603,-0.0275650005787611,-0.005421000067144632,0.05922200158238411,-1.1641080379486084,-9.540183067321777
2213045700,91.47016906738281,35.781494140625,0.010459999553859234,-0.03657500073313713,0.035277001559734344,0.07058800011873245,-1.0977070331573486,-9.438488006591797
2213055700,91.46988677978516,35.7906494140625,0.000838999985717237,-0.03420799970626831,0.005038999952375889,0.13698899745941162,-1.06659996509552,-9.46241569519043
2213065700,91.46988677978516,35.7906494140625,0.02267800085246563,-0.020844999700784683,0.023212000727653503,0.06699900329113007,-1.0971089601516724,-9.530611991882324
2213075700,91.46988677978516,35.7906494140625,0.01320900022983551,-0.028023000806570053,0.023670999333262444,0.1220329999923706,-1.0845459699630737,-9.514459609985352
2213085700,91.46988677978516,35.7906494140625,0.006031999830156565,-0.026114000007510185,-0.0031300000846385956,0.02811500057578087,-1.1431699991226196,-9.488738059997559
2213095700,91.46195983886719,35.78607177734375,0.008933000266551971,-0.018478000536561012,0.009314999915659428,0.07956100255250931,-1.1180460453033447,-9.486943244934082
2213105700,91.46324920654297,35.781494140625,0.001297999988310039,-0.012292999774217606,-0.002672000089660287,0.11784599721431732,-1.0821540355682373,-9.513861656188965
2213115700,91.46785736083984,35.781494140625,0.012751000002026558,-0.030389999970793724,0.0016789999790489674,0.05264199897646904,-1.1078760623931885,-9.477970123291016
2213125700,91.46556091308594,35.781494140625,0.017026999965310097,-0.025578999891877174,0.0011449999874457717,0.06400799751281738,-1.1192419528961182,-9.494720458984375
2213135700,91.46324920654297,35.781494140625,-0.005803000181913376,-0.030848000198602676,0.005497000180184841,0.07178399711847305,-1.0935189723968506,-9.504888534545898
2213145700,91.47118377685547,35.78607177734375,0.016493000090122223,-0.03657500073313713,-0.004046000074595213,0.06400799751281738,-1.0863410234451294,-9.537192344665527
2213155700,91.46859741210938,35.79522705078125,0.007482999935746193,-0.032756999135017395,0.007864000275731087,0.025124000385403633,-1.0923229455947876,-9.506085395812988
2213165700,91.46353149414062,35.7723388671875,0.0061079999431967735,-0.029854999855160713,-0.010765999555587769,0.056230999529361725,-1.082751989364624,-9.501897811889648
2213175700,91.47248077392578,35.781494140625,0.007406000047922134,-0.032756999135017395,0.015957999974489212,0.06400799751281738,-1.1096709966659546,-9.511468887329102
2213185700,91.46685028076172,35.77691650390625,0.02076900005340576,-0.026038000360131264,-0.001297999988310039,0.10767699778079987,-1.0923229455947876,-9.501299858093262
2213195700,91.4609375,35.781494140625,0.01030800025910139,-0.03420799970626831,0.026572000235319138,0.06819500029087067,-1.080957055091858,-9.534798622131348
2213205700,91.47118377685547,35.78607177734375,0.01794400066137314,-0.03657500073313713,0.01030800025910139,0.09032899886369705,-1.11326003074646,-9.503093719482422
2213215700,91.47016906738281,35.781494140625,0.008016999810934067,-0.03184099867939949,0.01802000030875206,0.07597199827432632,-1.1060819625854492,-9.515058517456055
2213225700,91.46785736083984,35.781494140625,0.020921999588608742,-0.04092700034379959,0.026189999654889107,0.08913200348615646,-1.1018940210342407,-9.510870933532715
2213235700,91.46556091308594,35.781494140625,0.014659999869763851,-0.025120999664068222,0.009314999915659428,0.06759700179100037,-1.1246260404586792,-9.494120597839355
2213245700,91.46887969970703,35.78607177734375,0.012751000002026558,-0.0222960002720356,-0.0012209999840706587,0.08733800053596497,-1.1210370063781738,-9.5324068069458
2213255700,91.4734878540039,35.78607177734375,0.008475000038743019,-0.030389999970793724,0.010231000371277332,0.08494500070810318,-1.0869389772415161,-9.521040916442871
2213265700,91.47118377685547,35.78607177734375,0.018936000764369965,-0.023670999333262444,-0.015042000450193882,0.07896299660205841,-1.0935189723968506,-9.492924690246582
2213275700,91.46914672851562,35.77691650390625,0.006566000171005726,-0.028480999171733856,0.0012209999840706587,0.07477500289678574,-1.0683950185775757,-9.530611991882324
2213285700,91.4642562866211,35.78607177734375,0.018478000536561012,-0.02275400049984455,0.0031300000846385956,0.09092699736356735,-1.0887340307235718,-9.518648147583008
2213295700,91.46656799316406,35.78607177734375,0.010919000022113323,-0.03375000134110451,-0.02977900020778179,0.09212300181388855,-1.06659996509552,-9.525228500366211
2213305700,91.46453857421875,35.77691650390625,0.0004579999949783087,-0.041843999177217484,0.03138300031423569,0.056230999529361725,-1.0935189723968506,-9.541977882385254
2213315700,91.46758270263672,35.7906494140625,0.013667999766767025,-0.02893899939954281,0.007864000275731087,0.0831499993801117,-1.1174479722976685,-9.501299858093262
2213325700,91.46453857421875,35.77691650390625,0.012217000126838684,-0.026572000235319138,0.021302999928593636,0.10528399795293808,-1.0821540355682373,-9.525228500366211
2213335700,91.46556091308594,35.781494140625,0.013667999766767025,-0.03184099867939949,0.027488000690937042,0.10109599679708481,-1.0857429504394531,-9.565905570983887
2213345700,91.47118377685547,35.78607177734375,0.0041229999624192715,-0.02993199974298477,0.005878999829292297,0.07716800272464752,-1.0983049869537354,-9.506684303283691
2213355700,91.46785736083984,35.781494140625,0.014049000106751919,-0.03558199852705002,0.02741199918091297,0.08075699955224991,-1.0438679456710815,-9.521040916442871
2213365700,91.46785736083984,35.781494140625,0.013286000117659569,-0.026114000007510185,-0.0030539999715983868,0.09451600164175034,-1.083948016166687,-9.510870933532715
2213375700,91.46556091308594,35.781494140625,0.01992899924516678,-0.033291999250650406,0.012292999774217606,0.05264199897646904,-1.116250991821289,-9.503093719482422
2213385700,91.47219848632812,35.7906494140625,0.014125999994575977,-0.03657500073313713,0.02031099982559681,0.07537300139665604,-1.0677969455718994,-9.452844619750977
2213395700,91.47016906738281,35.781494140625,0.012217000126838684,-0.020844999700784683,0.0031300000846385956,0.017945999279618263,-1.1234300136566162,-9.548558235168457
2213405700,91.46453857421875,35.77691650390625,0.025120999664068222,-0.019852999597787857,-0.008856999687850475,0.13698899745941162,-1.0695910453796387,-9.440282821655273
2213415700,91.46685028076172,35.77691650390625,0.004656999837607145,-0.02703000046312809,0.0012209999840706587,0.05383799970149994,-1.132403016090393,-9.53958511352539
2213425700,91.47016906738281,35.781494140625,0.0022140000946819782,-0.023670999333262444,-0.025120999664068222,0.09391800314188004,-1.0917249917984009,-9.47378158569336
2213435700,91.46453857421875,35.77691650390625,0.011758999899029732,-0.030389999970793724,0.01840200088918209,0.1435689926147461,-1.1054840087890625,-9.508478164672852
2213445700,91.46785736083984,35.781494140625,0.009850000031292439,-0.02703000046312809,-0.013132999651134014,0.11485499888658524,-1.0761710405349731,-9.473183631896973
2213455700,91.46556091308594,35.781494140625,0.01794400066137314,-0.02939699962735176,0.02275400049984455,0.0077760000713169575,-1.1258230209350586,-9.568897247314453
2213465700,91.4734878540039,35.78607177734375,0.02466299943625927,-0.030389999970793724,0.027946999296545982,0.004784999880939722,-1.1294119358062744,-9.525825500488281
2213475700,91.46785736083984,35.781494140625,0.002747999969869852,-0.019852999597787857,-0.008856999687850475,0.11964099854230881,-1.0677969455718994,-9.501299858093262
2213485700,91.46324920654297,35.781494140625,0.01840200088918209,-0.02893899939954281,0.01603499986231327,0.08793599903583527,-1.0815550088882446,-9.486943244934082
2213495700,91.46785736083984,35.781494140625,0.017026999965310097,-0.023670999333262444,-0.006947999820113182,0.05862399935722351,-1.1222330331802368,-9.504290580749512
2213505700,91.46887969970703,35.78607177734375,0.008016999810934067,-0.025655999779701233,0.01130099967122078,0.102292999625206,-1.144366979598999,-9.46899700164795
2213515700,91.47579956054688,35.78607177734375,0.009468000382184982,-0.03420799970626831,0.003206999972462654,0.04665999859571457,-1.0791620016098022,-9.5324068069458
2213525700,91.46656799316406,35.78607177734375,0.008475000038743019,-0.028023000806570053,0.004046000074595213,0.05264199897646904,-1.1114660501480103,-9.5324068069458
2213535700,91.46785736083984,35.781494140625,0.02267800085246563,-0.030848000198602676,-0.011223999783396721,0.031106000766158104,-1.1318049430847168,-9.559326171875
2213545700,91.46324920654297,35.781494140625,0.003283000085502863,-0.03611699864268303,0.0022140000946819782,0.08853399753570557,-1.112064003944397,-9.487541198730469
2213555700,91.46887969970703,35.78607177734375,0.00992599967867136,-0.0222960002720356,-0.005421000067144632,0.04905200004577637,-1.1192419528961182,-9.467202186584473
2213565700,91.46887969970703,35.78607177734375,0.008475000038743019,-0.03130599856376648,0.004046000074595213,0.025124000385403633,-1.1449649333953857,-9.507880210876465
2213575700,91.46324920654297,35.781494140625,0.001297999988310039,-0.028480999171733856,-0.004046000074595213,0.0843459963798523,-1.0677969455718994,-9.503692626953125
2213585700,91.46887969970703,35.78607177734375,0.008933000266551971,-0.028023000806570053,0.004046000074595213,0.07118599861860275,-1.095911979675293,-9.509077072143555
2213595700,91.46785736083984,35.781494140625,0.01603499986231327,-0.028480999171733856,-0.0016789999790489674,0.03469499945640564,-1.1270190477371216,-9.496514320373535
2213605700,91.46887969970703,35.78607177734375,0.021761000156402588,-0.024204999208450317,0.016493000090122223,0.05982000008225441,-1.1276170015335083,-9.537790298461914
2213615700,91.47118377685547,35.78607177734375,0.012217000126838684,-0.023670999333262444,-0.005497000180184841,0.07896299660205841,-1.0851449966430664,-9.521040916442871
2213625700,91.46785736083984,35.781494140625,0.010383999906480312,-0.027488000690937042,0.023670999333262444,0.08853399753570557,-1.062412977218628,-9.555736541748047
2213635700,91.46453857421875,35.77691650390625,0.01603499986231327,-0.035124000161886215,0.008399000391364098,0.03170400112867355,-1.124027967453003,-9.559924125671387
2213645700,91.4642562866211,35.78607177734375,0.000838999985717237,-0.024204999208450317,0.006413999944925308,0.043069999665021896,-1.1557329893112183,-9.492924690246582
2213655700,91.46629333496094,35.79522705078125,0.0017559999832883477,-0.030848000198602676,0.024128999561071396,0.05862399935722351,-1.0917249917984009,-9.487541198730469
2213665700,91.4609375,35.781494140625,0.005115000065416098,-0.02893899939954281,-0.0002280000044265762,0.11844400316476822,-1.0785640478134155,-9.530014038085938
2213675700,91.46914672851562,35.77691650390625,0.00939099956303835,-0.03130599856376648,0.015042000450193882,0.03349899873137474,-1.1048849821090698,-9.533004760742188
2213685700,91.46556091308594,35.781494140625,0.006566000171005726,-0.03130599856376648,-0.0012209999840706587,0.10648000240325928,-1.14137601852417,-9.524629592895508
2213695700,91.47118377685547,35.78607177734375,0.006031999830156565,-0.033291999250650406,0.012675000354647636,0.09092699736356735,-1.0887340307235718,-9.525228500366211
2213705700,91.47016906738281,35.781494140625,0.00939099956303835,-0.03420799970626831,0.02076900005340576,0.08075699955224991,-1.1096709966659546,-9.501299858093262
2213715700,91.47579956054688,35.78607177734375,0.012751000002026558,-0.025578999891877174,-0.012217000126838684,0.019740000367164612,-1.1168489456176758,-9.519844055175781
2213725700,91.47016906738281,35.781494140625,0.005115000065416098,-0.03375000134110451,0.009314999915659428,0.08135499805212021,-1.0408769845962524,-9.503692626953125
2213735700,91.47118377685547,35.78607177734375,0.00030499999411404133,-0.03130599856376648,0.00015199999324977398,-0.0017940000398084521,-1.1461620330810547,-9.474381446838379
2213745700,91.46556091308594,35.781494140625,0.013590999878942966,-0.02893899939954281,0.018324999138712883,0.07298099994659424,-1.0917249917984009,-9.512665748596191
2213755700,91.4642562866211,35.78607177734375,0.015576999634504318,-0.02993199974298477,0.015576999634504318,0.07776600122451782,-1.06659996509552,-9.516255378723145
2213765700,91.46887969970703,35.78607177734375,0.016568999737501144,-0.018936000764369965,-0.009314999915659428,0.061615001410245895,-1.1318049430847168,-9.518050193786621
2213775700,91.4734878540039,35.78607177734375,-0.002061000093817711,-0.03558199852705002,-0.031000999733805656,0.04067699983716011,-1.1192419528961182,-9.510272979736328
2213785700,91.46222686767578,35.77691650390625,0.015042000450193882,-0.03657500073313713,0.013057000003755093,0.09212300181388855,-1.095911979675293,-9.483353614807129
2213795700,91.46887969970703,35.78607177734375,0.016951000317931175,-0.023670999333262444,-0.017562000080943108,0.04606100171804428,-1.080957055091858,-9.501897811889648
2213805700,91.46656799316406,35.78607177734375,0.011223999783396721,-0.030389999970793724,0.02932099997997284,0.10707800090312958,-1.0701889991760254,-9.510272979736328
2213815700,91.46222686767578,35.77691650390625,0.01030800025910139,-0.03558199852705002,0.0025190000887960196,0.042472001165151596,-1.0755729675292969,-9.551548957824707
2213825700,91.47248077392578,35.781494140625,0.018324999138712883,-0.02993199974298477,0.010154999792575836,0.08853399753570557,-1.0851449966430664,-9.541379928588867
2213835900,91.46656799316406,35.78607177734375,0.019852999597787857,-0.02939699962735176,0.007864000275731087,0.07896299660205841,-1.0971089601516724,-9.44925594329834
2213845700,91.47118377685547,35.78607177734375,0.012751000002026558,-0.017026999965310097,0.016951000317931175,0.09331999719142914,-1.1168489456176758,-9.525825500488281
2213855700,91.46656799316406,35.78607177734375,0.016951000317931175,-0.030389999970793724,0.032680999487638474,0.09631100296974182,-1.1090730428695679,-9.503093719482422
2213865700,91.46453857421875,35.77691650390625,0.02450999990105629,-0.0336729995906353,-0.023289000615477562,0.083747997879982,-1.104287028312683,-9.509077072143555
2213875700,91.47219848632812,35.7906494140625,0.021761000156402588,-0.03375000134110451,0.016493000090122223,0.08673900365829468,-1.104287028312683,-9.508478164672852
2213885700,91.46887969970703,35.78607177734375,0.03222300112247467,-0.020844999700784683,0.004505000077188015,0.09631100296974182,-1.1036889553070068,-9.528817176818848
2213895700,91.46785736083984,35.781494140625,0.0016789999790489674,-0.018936000764369965,0.00633700005710125,0.083747997879982,-1.1192419528961182,-9.498309135437012
2213905700,91.46758270263672,35.7906494140625,0.017409000545740128,-0.026496000587940216,0.013057000003755093,0.09032899886369705,-1.1102689504623413,-9.517451286315918
2213915700,91.46887969970703,35.78607177734375,0.012292999774217606,-0.018936000764369965,0.0012209999840706587,0.08075699955224991,-1.1078760623931885,-9.538987159729004
2213925700,91.46656799316406,35.78607177734375,0.019852999597787857,-0.029854999855160713,0.015576999634504318,0.09092699736356735,-1.0863410234451294,-9.510870933532715
2213935700,91.46988677978516,35.7906494140625,0.02267800085246563,-0.025120999664068222,0.004505000077188015,0.09391800314188004,-1.0630110502243042,-9.5324068069458
2213945700,91.47810363769531,35.78607177734375,0.01748500019311905,-0.029854999855160713,0.0021379999816417694,0.08853399753570557,-1.0965100526809692,-9.500102996826172
2213955700,91.46685028076172,35.77691650390625,0.01748500019311905,-0.021761000156402588,0.004505000077188015,0.08793599903583527,-1.1090730428695679,-9.520442008972168
2213965700,91.46988677978516,35.7906494140625,0.01320900022983551,-0.027488000690937042,0.01549999974668026,0.07836399972438812,-1.1018940210342407,-9.533004760742188
2213975700,91.46887969970703,35.78607177734375,0.009314999915659428,-0.03130599856376648,-0.000838999985717237,0.09810499846935272,-1.0995010137557983,-9.495318412780762
2213985700,91.46887969970703,35.78607177734375,0.019317999482154846,-0.027488000690937042,0.023593999445438385,0.09631100296974182,-1.0881359577178955,-9.528219223022461
2213995700,91.47016906738281,35.781494140625,0.00977300014346838,-0.03466600179672241,0.015424000099301338,0.10707800090312958,-1.098902940750122,-9.525825500488281
2214005700,91.46887969970703,35.78607177734375,0.014049000106751919,-0.02466299943625927,0.018324999138712883,0.08075699955224991,-1.0965100526809692,-9.523432731628418
2214015700,91.46195983886719,35.78607177734375,0.024128999561071396,-0.028023000806570053,0.021302999928593636,0.06639999896287918,-1.1138579845428467,-9.487541198730469
2214025700,91.46785736083984,35.781494140625,0.006566000171005726,-0.03947699815034866,-0.00419900007545948,0.1016940027475357,-1.095911979675293,-9.522834777832031
2214035700,91.46556091308594,35.781494140625,0.015042000450193882,-0.030389999970793724,0.019700000062584877,0.05383799970149994,-1.1174479722976685,-9.524629592895508
2214045700,91.46324920654297,35.781494140625,0.013667999766767025,-0.03657500073313713,0.010765999555587769,0.11904200166463852,-1.11326003074646,-9.52941608428955
2214055700,91.46324920654297,35.781494140625,0.023212000727653503,-0.030848000198602676,-0.004046000074595213,0.09152500331401825,-1.0594220161437988,-9.535398483276367
2214065700,91.46685028076172,35.77691650390625,0.002672000089660287,-0.02703000046312809,0.006794999819248915,0.07597199827432632,-1.1192419528961182,-9.473183631896973
2214075700,91.46887969970703,35.78607177734375,0.007406000047922134,-0.020844999700784683,-0.000838999985717237,0.05383799970149994,-1.1036889553070068,-9.504888534545898
2214085700,91.46556091308594,35.781494140625,0.01030800025910139,-0.023212000727653503,0.0006099999882280827,0.05443599820137024,-1.1108670234680176,-9.57787036895752
